,accel-x-0,accel-x-1,accel-x-2,accel-x-3,accel-x-4,accel-x-5,accel-x-6,accel-x-7,accel-x-8,accel-x-9,accel-x-10,accel-x-11,accel-x-12,accel-x-13,accel-x-14,accel-x-15,accel-x-16,accel-x-17,accel-x-18,accel-x-19,accel-x-20,accel-x-21,accel-x-22,accel-x-23,accel-x-24,accel-x-25,accel-x-26,accel-x-27,accel-x-28,accel-x-29,accel-x-30,accel-x-31,accel-x-32,accel-x-33,accel-x-34,accel-x-35,accel-x-36,accel-x-37,accel-x-38,accel-x-39,accel-x-40,accel-x-41,accel-x-42,accel-x-43,accel-x-44,accel-x-45,accel-x-46,accel-x-47,accel-x-48,accel-x-49,accel-x-50,accel-x-51,accel-x-52,accel-x-53,accel-x-54,accel-x-55,accel-x-56,accel-x-57,accel-x-58,accel-x-59,accel-y-0,accel-y-1,accel-y-2,accel-y-3,accel-y-4,accel-y-5,accel-y-6,accel-y-7,accel-y-8,accel-y-9,accel-y-10,accel-y-11,accel-y-12,accel-y-13,accel-y-14,accel-y-15,accel-y-16,accel-y-17,accel-y-18,accel-y-19,accel-y-20,accel-y-21,accel-y-22,accel-y-23,accel-y-24,accel-y-25,accel-y-26,accel-y-27,accel-y-28,accel-y-29,accel-y-30,accel-y-31,accel-y-32,accel-y-33,accel-y-34,accel-y-35,accel-y-36,accel-y-37,accel-y-38,accel-y-39,accel-y-40,accel-y-41,accel-y-42,accel-y-43,accel-y-44,accel-y-45,accel-y-46,accel-y-47,accel-y-48,accel-y-49,accel-y-50,accel-y-51,accel-y-52,accel-y-53,accel-y-54,accel-y-55,accel-y-56,accel-y-57,accel-y-58,accel-y-59,accel-z-0,accel-z-1,accel-z-2,accel-z-3,accel-z-4,accel-z-5,accel-z-6,accel-z-7,accel-z-8,accel-z-9,accel-z-10,accel-z-11,accel-z-12,accel-z-13,accel-z-14,accel-z-15,accel-z-16,accel-z-17,accel-z-18,accel-z-19,accel-z-20,accel-z-21,accel-z-22,accel-z-23,accel-z-24,accel-z-25,accel-z-26,accel-z-27,accel-z-28,accel-z-29,accel-z-30,accel-z-31,accel-z-32,accel-z-33,accel-z-34,accel-z-35,accel-z-36,accel-z-37,accel-z-38,accel-z-39,accel-z-40,accel-z-41,accel-z-42,accel-z-43,accel-z-44,accel-z-45,accel-z-46,accel-z-47,accel-z-48,accel-z-49,accel-z-50,accel-z-51,accel-z-52,accel-z-53,accel-z-54,accel-z-55,accel-z-56,accel-z-57,accel-z-58,accel-z-59,gyro-x-0,gyro-x-1,gyro-x-2,gyro-x-3,gyro-x-4,gyro-x-5,gyro-x-6,gyro-x-7,gyro-x-8,gyro-x-9,gyro-x-10,gyro-x-11,gyro-x-12,gyro-x-13,gyro-x-14,gyro-x-15,gyro-x-16,gyro-x-17,gyro-x-18,gyro-x-19,gyro-x-20,gyro-x-21,gyro-x-22,gyro-x-23,gyro-x-24,gyro-x-25,gyro-x-26,gyro-x-27,gyro-x-28,gyro-x-29,gyro-x-30,gyro-x-31,gyro-x-32,gyro-x-33,gyro-x-34,gyro-x-35,gyro-x-36,gyro-x-37,gyro-x-38,gyro-x-39,gyro-x-40,gyro-x-41,gyro-x-42,gyro-x-43,gyro-x-44,gyro-x-45,gyro-x-46,gyro-x-47,gyro-x-48,gyro-x-49,gyro-x-50,gyro-x-51,gyro-x-52,gyro-x-53,gyro-x-54,gyro-x-55,gyro-x-56,gyro-x-57,gyro-x-58,gyro-x-59,gyro-y-0,gyro-y-1,gyro-y-2,gyro-y-3,gyro-y-4,gyro-y-5,gyro-y-6,gyro-y-7,gyro-y-8,gyro-y-9,gyro-y-10,gyro-y-11,gyro-y-12,gyro-y-13,gyro-y-14,gyro-y-15,gyro-y-16,gyro-y-17,gyro-y-18,gyro-y-19,gyro-y-20,gyro-y-21,gyro-y-22,gyro-y-23,gyro-y-24,gyro-y-25,gyro-y-26,gyro-y-27,gyro-y-28,gyro-y-29,gyro-y-30,gyro-y-31,gyro-y-32,gyro-y-33,gyro-y-34,gyro-y-35,gyro-y-36,gyro-y-37,gyro-y-38,gyro-y-39,gyro-y-40,gyro-y-41,gyro-y-42,gyro-y-43,gyro-y-44,gyro-y-45,gyro-y-46,gyro-y-47,gyro-y-48,gyro-y-49,gyro-y-50,gyro-y-51,gyro-y-52,gyro-y-53,gyro-y-54,gyro-y-55,gyro-y-56,gyro-y-57,gyro-y-58,gyro-y-59,gyro-z-0,gyro-z-1,gyro-z-2,gyro-z-3,gyro-z-4,gyro-z-5,gyro-z-6,gyro-z-7,gyro-z-8,gyro-z-9,gyro-z-10,gyro-z-11,gyro-z-12,gyro-z-13,gyro-z-14,gyro-z-15,gyro-z-16,gyro-z-17,gyro-z-18,gyro-z-19,gyro-z-20,gyro-z-21,gyro-z-22,gyro-z-23,gyro-z-24,gyro-z-25,gyro-z-26,gyro-z-27,gyro-z-28,gyro-z-29,gyro-z-30,gyro-z-31,gyro-z-32,gyro-z-33,gyro-z-34,gyro-z-35,gyro-z-36,gyro-z-37,gyro-z-38,gyro-z-39,gyro-z-40,gyro-z-41,gyro-z-42,gyro-z-43,gyro-z-44,gyro-z-45,gyro-z-46,gyro-z-47,gyro-z-48,gyro-z-49,gyro-z-50,gyro-z-51,gyro-z-52,gyro-z-53,gyro-z-54,gyro-z-55,gyro-z-56,gyro-z-57,gyro-z-58,gyro-z-59,gyro-end-time,level_0,accel-end-time,gyro-start-time,index,user,serial,accel-start-time,csv,timestamp diff,activity code,window,standard activity code
401,0.0079636173322796,-0.0003406920004636,-0.0009174195583909,0.0138349290937185,0.0060552121140062,-0.0116372518241405,0.021686440333724,-0.0222012624144554,0.0060964683070778,-0.0013304750900715,0.0037717479281127,0.0108851846307516,-0.0024049521889537,0.0042531993240118,0.0057727629318833,0.0071679474785923,-3.1448667868971825e-05,0.0010425595100969,0.0110088614746928,0.0125633738934993,-0.0037493256386369,0.0194877069443464,-0.008016956038773,-0.0025397853460162,0.0140156401321291,0.0071928929537534,-0.0006583924405276,-0.0072126146405935,-0.0060849897563457,-0.001232884125784,-0.0096850655972957,0.0151685327291488,-0.0192268528044223,0.0185938756912946,0.0306946262717247,-0.0156584903597831,0.0016281304415315,-0.0051685767248272,0.0131581267341971,0.004783643875271,0.0029065706767141,0.01935650780797,-0.0086301434785127,0.0060023069381713,0.0013752209488302,0.0043759457767009,2.7776695787906647e-06,0.0035549872554838,0.0030056373216211,0.0006845410680398,-0.008902832865715,0.0089869098737835,0.0082574617117643,0.0064220475032925,0.0146375801414251,-0.00524487439543,0.0070141414180397,0.0115790609270334,0.0005594298709183,-0.010079737752676,0.0060334675945341,0.0096763763576745,0.0008360131178051,-0.0024642238859087,-0.0112387221306562,0.0125287435948848,0.0010919254273176,0.0066749467514455,0.00603449344635,0.0010319536086171,0.008396471850574,-0.0139020215719938,-0.0036568050272762,-0.0013581826351583,0.0020023793913424,0.0152504444122314,0.0101147312670946,0.0008637543069198,-0.0129467062652111,-0.0043125483207404,-0.0032879165373742,0.0034095568116754,-0.0011433335021138,0.0065689892508089,0.0059581021778285,0.0155799053609371,-0.009353058412671,-0.0134199056774377,0.0037007599603384,0.0054452582262456,0.0063612121157348,0.0044419169425964,0.0009963687043637,0.0064666960388422,-0.0073484652675688,-0.0070191635750234,-0.0022788883652538,0.0214538387954235,0.0028998344205319,-0.0038877124898135,0.0087085962295532,0.0028418088331818,0.0089727286249399,-0.0106552951037883,0.0105901509523391,0.0015847883187234,0.0045667206868529,0.0023687863722443,-0.0030589289963245,-0.0067170946858823,0.0098623540252447,0.0034924417268484,-0.0005501777632161,-0.0012435547541826,0.0009250661241821,-0.0133027750998735,0.0078393202275037,0.0130387842655181,0.0103450044989585,-0.0094322506338357,-0.0026936687063425,-0.0070777158252894,-0.0096749905496835,-0.0057789040729403,-0.0253245756030082,0.0003228648565709,-0.0068756169639527,-0.0076809655874967,0.0058640018105506,-0.0230566225945949,0.0122411670163273,-0.0151681695133447,-0.0102997235953807,0.0021586446091532,-0.0221333988010883,-0.0120158586651086,-0.0099372807890176,-0.0031878473237156,0.0046554021537303,-0.0189515203237533,-0.0014836201444268,-0.0015188162215054,-0.0087713859975337,-0.000913050957024,-0.0166314262896776,0.0017919605597853,-0.007170365191996,0.0077673448249697,0.00138252787292,-0.0362014174461364,0.0022077756002545,-0.0290449894964694,0.0187221765518188,0.0036863787099719,-0.056347981095314,0.0305571667850017,0.0065672444179654,-0.0029506364371627,-0.0283122360706329,-0.0089896451681852,0.0036010025069117,-0.0376613326370716,0.0036208983510732,-0.012776743620634,-0.0181007422506809,0.0117306960746645,-0.0150112519040703,-0.0109664946794509,0.01132248993963,-0.0109690157696604,-0.0067891892977058,-0.0128981526941061,0.0087119247764348,-0.0170138217508792,-0.0194547660648822,0.0099825197830796,-0.0250241719186306,0.0056531764566898,-0.0079885898157954,-0.0200153738260269,0.0004062886873725,-0.0004423836362548,-0.0008774198940955,-0.0001854629808804,0.0001794326381059,0.0006683773826807,3.78299446310848e-05,0.0017689473461359,0.001127329072915,-0.0017747953534126,-0.0001714256795821,-0.0001910730061354,0.0007155208732001,0.0011199041036888,0.0010994982440024,-0.0005292638670653,1.800023892428726e-05,0.0009831831557676,-0.0001824819046305,0.0001805644424166,0.0010620654793456,-0.0019888260867446,0.0005324962548911,0.0019614540506154,-0.000637816847302,-5.363386298995465e-05,0.0003340627008583,0.0004675728268921,-0.0006287694559432,0.0017147032776847,-0.0017871565651148,-0.0009758764063008,0.0017128301551565,-0.0027389368042349,0.003102897433564,0.0021504685282707,-0.0028659810777753,-4.641327541321516e-05,-0.0030150418169796,-0.0001850051194196,-0.001802813494578,-0.000769664067775,0.0006013619713485,-0.0008164635510183,0.001053558778949,0.0008854097686707,-5.254409916233272e-05,0.0006783790304325,-0.0004711925867013,0.0010859497124329,0.0019777684938162,0.0002550355857238,0.0008061412954702,-0.0013061753707006,0.0012553735869005,0.0003718228545039,0.0025178862269967,0.0008904921705834,-0.000606269983109,-0.0009715997730381,0.0022994200699031,0.0035385149531066,0.0038736565038561,0.0023006461560726,0.0029456466436386,0.0028689648024737,0.0015659626806154,0.0060412092134356,-0.0003906761994585,0.0030336568597704,0.0004178695380687,0.0015745568089187,0.0030708685517311,1.968035940080881e-05,0.000456080189906,-0.0008143278537318,0.0017512439517304,0.0005305826780386,-8.583650924265385e-06,0.0005552697111852,0.0008481505792587,-0.0012861302820965,0.0022024344652891,-0.0014884184347465,-0.0002754005836322,-0.0015390656189993,0.0005244484054856,-0.0016489872941747,-0.0063189980573952,-0.0018212242284789,-0.0140922311693429,-0.0035106888972222,0.0049826684407889,-0.0099363345652818,0.0122663108631968,0.008536989800632,-0.0102411415427923,-0.005294379312545,-0.0144738676026463,-0.0026660487055778,-0.0102874422445893,-0.0048460951074957,0.0029826760292053,-0.0012203295482322,0.0049303094856441,0.0067863059230148,0.0023105596192181,0.0092632807791233,0.0016657540109008,0.0054305782541632,0.0070730401203036,0.0010589766316115,0.0057022552937269,-0.003717578947544,0.0037555224262177,0.003954451996833,0.0020974487997591,0.0081558991223573,0.0045971679501235,0.0024410923942923,-0.0003460212610661,0.0011614171089604,0.00023616218823,0.0012705926783382,-0.0003354396903887,0.0007128691649995,-0.0005038656527176,0.0012182359350845,-0.0009173185680992,0.0020461129024624,0.0010495275491848,0.0001979483931791,0.0007007837411947,0.0013977672206237,-0.0003350429469719,0.0003570504777599,-0.0003236866905353,-0.0004462483921088,0.0007764555048197,-0.000504306924995,-0.0009051854140125,-0.0014108341420069,-0.000768335419707,-0.0014025105629116,0.002266994677484,0.0001488194102421,4.429108230397105e-06,0.0006447456544265,-0.0008075537043623,0.0007338635041378,-0.0024056336842477,-0.0023651691153645,0.0011816719779744,0.0013557790080085,0.0024515655823051,-0.0006202022195793,-0.0019519495544955,-0.0001415709994034,0.0002248733799206,0.0006442510639317,8.153211820172146e-05,0.000564630550798,0.0020651039667427,0.0002572197699919,-0.0016593540785834,0.0023004582617431,-0.0015964992344379,0.0012936998391523,-0.0015111219836398,0.0010328008793294,-0.0002714483998715,0.0004574004560708,-0.000645336927846,-0.0002632939140312,0.0010541398078203,-0.000839305401314,0.0001739496365189,0.0012333041522651,0.0011543757282197,-0.0014525343431159,2.976999998092652,835095.0,2.9779999256134038,2.976999998092652,301.0,1037.0,1,2.9779999256134038,1.Sit/1037_B_1.csv,0.0099999904632568,1,5,0
285,0.0113495318219065,0.000906437577214,-0.0170127544552087,0.0034158637281507,-0.0036766973789781,0.0035345847718417,-0.0139186764135956,0.0009866364998742,-0.0039775017648935,-0.005770206451416,0.0025641084648668,-0.0078021977096796,-0.0092693846672773,-0.0050185560248792,0.0072919740341603,-0.0057707331143319,0.0056042866781353,0.0070932926610112,0.0008272440754808,0.0088835814967751,0.0001019049595925,-0.0099057964980602,0.006145644467324,-0.0033595215063542,0.001931749517098,0.0115913031622767,-0.009717016480863,0.0040540965273976,-0.0077248257584869,-0.0158018656075,-0.0045253252610564,-0.004519734531641,-0.0024015367962419,0.0108903460204601,-0.0180756580084562,0.0007376761059276,0.0011872194008901,-0.003678377252072,0.0087366374209523,3.101173206232488e-05,-0.0001586979196872,0.0014193175593391,0.0021548368968069,-0.0029381485655903,0.0059615699574351,-0.0070702526718378,-0.0062572164461016,0.0006012471276335,-0.0047070607542991,-0.0005441279499791,-0.0037380349822342,0.0033179104793816,0.0016336534172296,0.0071846237406134,-0.0063675669953227,-6.139955803519115e-05,0.0121333291754126,0.0121445301920175,-0.0075685386545956,0.0065479017794132,-0.009566412307322,0.0069389613345265,0.0121268853545188,-0.0089907813817262,-0.0035698884166777,-0.0074519058689475,-0.0031265676952898,-0.0063680983148515,-0.0026384592056274,0.0031667337752878,0.0062682647258043,-0.009109447710216,0.006901423446834,0.0187306851148605,-0.0100251669064164,-0.0027122320607304,-0.0050911265425384,-0.0106768077239394,0.0009266680572181,0.0114672621712088,-0.007127231452614,-0.0046851285733282,-0.0012578177265822,-0.0104973604902625,-0.0015292013995349,-0.0073020942509174,0.0160935129970312,-0.0037432084791362,0.0032579381950199,0.0009832133073359,-0.0026548383757472,0.0008614175021648,-0.0022070491686463,-0.0043587484396994,0.0042485888116061,0.0077521773055195,-0.0032106828875839,-0.0014089825563132,-0.001806198968552,-0.0071903280913829,0.0024841055274009,0.0011237589642405,0.0075734890997409,0.0080729406327009,-0.0244452860206365,0.0187911055982112,0.0019668661989271,0.0008868861477822,0.0013839319581165,-0.0083596445620059,-0.0028454079292714,0.004518799483776,-0.0076730097644031,-0.0023695956915616,0.0031197317875921,0.0085680950433015,-0.0051506087183952,-0.0078902626410126,0.0013530171709135,0.0113761583343148,-0.0018735892372205,-0.0172624457627534,-0.0039051661733537,-0.0069964583963155,0.0144562507048249,-0.0177515782415866,0.0100727239623665,0.0059115970507264,-0.0141358412802219,-0.0201647412031888,0.0045191752724349,0.0125521169975399,-0.0355612635612487,0.0038021358195692,0.0028367184568196,-0.0199627000838518,0.0054249386303126,-0.0050854347646236,-0.0145173212513327,-0.0007748282514512,-0.009720928966999,-0.001478485064581,-0.0050474135205149,0.0147089073434472,-0.0038624766748398,-0.0039457352831959,-0.0150049533694982,0.0298858527094125,-0.0120765473693609,-0.0212219227105379,0.0194601342082023,-0.0127150733023881,-0.0025814918335527,-0.0070802066475152,-0.0045785252004861,0.0033870195038616,-0.0017747236415743,0.0111520485952496,-0.0091840820387005,0.0095338402315974,0.0159438084810972,-0.0147184589877724,-0.0099250441417098,-0.0103244725614786,0.0333396792411804,-0.0298965014517307,-0.0095324870198965,0.0146499844267964,-0.0273921582847833,0.0038050294388085,0.021965742111206,0.0093852197751402,-0.0134345469996333,-0.0193998012691736,0.0179356187582016,-0.0080750277265906,0.0091953258961439,-0.0155028169974684,-0.0046301763504743,-0.008938867598772,-0.0004687887849286,6.261735688894987e-05,0.0007910148706287,-0.0002653102565091,-0.001202798448503,0.0006071719690226,0.000809421413578,-0.0013371251989156,0.0016271998174488,-0.0008552331710234,0.0009084516204893,-0.0005612341919913,-0.0003260426456108,-0.0006256880587898,-0.0005763123044744,0.0004764372715726,-0.0004408559179864,0.0005535534583032,0.0004338959115557,-5.661659815814346e-05,0.0001496398472227,0.0002040441904682,0.0002227229997515,0.0007223982247523,0.0007921746582724,-6.851133366581053e-05,0.0007983004325069,-6.347402813844383e-05,-0.0020736046135425,0.0006640501087531,-0.0009691111627034,0.0005128529155626,0.0003084998461417,-0.0002117367112077,0.0004166651924606,0.0007834432763047,-0.0004079192876815,-0.0010988051071763,-0.0007955927285365,0.001520805992186,-0.0005907660233788,8.809810969978571e-05,-0.0007078389753587,0.0014232713729143,-0.0002979252312798,0.0004890512209385,-0.0005104868323542,-0.0024405661970376,-6.727695290464908e-05,-0.0007544897380284,0.0008925094734877,0.0013555283658206,0.0002334375312784,-0.0003380244597792,-0.0001256280811503,-0.0002244502247776,0.0009566931403242,-0.0004817235167138,-0.0002002343826461,0.0009573478018864,0.0046463552862405,0.0135355358943343,0.0082363877445459,0.0045778267085552,0.0034595793113112,0.005772084929049,0.0089895064011216,-1.6579273506067693e-05,0.0033110685180872,0.0054816254414618,0.0029216208495199,0.0025839474983513,6.136761658126488e-05,0.0004456937022041,-0.000181558280019,0.0028699841350317,-0.0006701509119011,0.0018579619936645,0.0008682905463501,-0.0011466648429632,0.0074950493872165,0.0041967113502323,0.0036241142079234,0.0008349926210939,0.000560525630135,0.0089271068572998,0.0052388831973075,0.0026158427353948,0.0062955701723694,0.0032853153534233,-0.0003547143132891,0.00368307903409,0.0013091057771816,0.0040591084398329,0.0065291668288409,-0.0053093405440449,0.0004651982162613,-0.0005606969934888,-0.0015908747445791,0.0025308120530098,-0.0025267896708101,-0.0001848512911237,0.0005332069122232,-0.0029849966522306,-0.0051058074459433,0.0006363178254105,-0.0019495761953294,-0.0035301237367093,0.001126145478338,-0.0017201753798872,0.0003652394225355,0.0013403347693383,-0.0027385761495679,0.0031000857707113,0.0007194888894446,-0.0001839252945501,0.0017595081590116,-0.0031112928409129,0.0024490819778293,-0.0002607110945973,0.0005773480515927,1.147546572610736e-05,0.0014404047979041,0.0001812223345041,-0.0009438369888812,0.0012717144563794,-3.798239049501717e-06,0.0001857118913903,0.0005817125784233,-0.0037240928504616,0.0017700174357742,-0.0006786480080336,-0.0004391772090457,0.0008626582566648,0.0005883154226467,0.0005010073073208,0.0015918830176815,-0.0002905832370743,0.0001634378277231,3.763590939342976e-06,0.0003815730742644,-0.0001200782789965,0.0007366260979324,0.0007680520648136,0.0003275137278251,-0.0030672289431095,-0.0029580690898001,0.0007653121137991,-0.0009435159154236,0.0005011418834328,0.001623447285965,0.0013069711858406,0.0011289739049971,-0.0003751329786609,0.0005655594868585,0.0009463309543207,-0.0007126644486561,-0.000194708147319,-1.717265695333481e-05,0.0013411319814622,-0.0001766030763974,-0.0008226754143834,-0.0017860394436866,-0.0004210140032228,0.0020839730277657,1.9864586647599936e-05,0.0012307983124628,0.0001192591153085,0.0008760653436183,0.0002651211107149,-0.0016860989853739,-3.4424847399350256e-05,0.0007061505457386,0.0009018606506288,-0.0013492851285263,-0.0001590103056514,0.0013176552020013,-0.0021952977403998,-0.0008142996812239,-0.0032356241717934,10.095000267028809,717635.0,10.095999717712402,10.095000267028809,1021.0,1021.0,1,10.095999717712402,1.Sit/1021_B_1.csv,0.0120000839233398,1,17,0
335,-0.0111743723973631,0.0135231185704469,-0.0127781983464956,-0.002615368925035,0.0198696870356798,-0.0265628322958946,-0.0012529746163636,-0.0120404912158846,0.0318163484334945,0.0117468228563666,-0.0287708062678575,0.0080378614366054,-0.0035963386762887,0.0142355468124151,0.0047365054488182,0.0022379232104867,0.0048955800011754,-0.0149024669080972,-0.0043058367446064,-0.0149481361731886,0.022727021947503,0.0144901182502508,-0.0426270477473735,0.0055149747058749,-0.0092829959467053,-0.0069743823260068,-0.001180927734822,-0.0123205184936523,-0.0028602010570466,-0.005179913714528,-0.0066841673105955,-0.0067966068163514,0.0023267187643796,0.0375259257853031,-0.0323533527553081,-0.0123753305524587,0.0020213995594531,-0.0050297742709517,0.0037704582791775,0.0045412378385663,-0.0032463103998452,0.0057386076077818,-0.0018562900368124,-0.0024140109308063,0.0068744402378797,0.0028829185757786,0.0218431930989027,-0.0353808179497718,-0.0029486655257642,-0.0111243864521384,-0.0168224181979894,0.0083132358267903,-0.0081233326345682,-0.0031475133728235,0.0067343758419156,0.0021398190874606,0.0005438062362372,0.0077738668769598,0.0007218022365123,-0.0112849026918411,-0.0179387256503105,0.0217255465686321,0.0005117449909448,-0.0288730077445507,-0.0101088266819715,0.0185144394636154,0.0160344764590263,-0.001348880585283,-0.007726902142167,0.0026787659153342,0.0084453141316771,0.0124085629358887,-0.0135365640744566,-0.0069211544468998,0.0218018293380737,-0.001121066045016,-0.0148697830736637,0.0069597535766661,0.0114697096869349,-0.0111891739070415,0.0013345497427508,0.0028170626610517,0.0117907114326953,0.0153525229543447,-0.0062048151157796,0.0015361439436674,0.0041986773721873,-0.0035213371738791,-0.0058822710998356,-0.0136713311076164,0.0129211572930216,-0.0027981558814644,-0.0084490021690726,0.000657721189782,-0.0039351936429739,0.0022022183984518,0.0081429872661829,-0.0126872919499874,0.00691260676831,0.0004531501326709,-0.0066276569850742,0.0067539499141275,0.0102696157991886,0.0067925485782325,0.0040679001249372,-0.0057518086396157,0.0041193286888301,0.0034557180479168,-0.0033805291168391,0.0123057654127478,-0.0179872214794158,0.0003051534295082,-0.000544840528164,-0.0080620842054486,0.0035355691798031,-0.0002981208381243,0.0073361936956644,0.0049103368073701,-0.0051217339932918,-0.0085229715332388,0.0165335237979888,0.0108348103240132,0.0129139991477131,0.0029619475826621,0.0101001476868987,-0.005267921835184,0.0173582211136817,0.0199122186750173,-0.0141646331176161,-0.0134015809744596,0.0164885409176349,-0.0231836773455142,0.0080083208158612,-0.0078297071158885,-0.0071404702030122,-0.0021244112867861,0.0052729966118931,0.0178990382701158,0.0065677855163812,0.0048121656291186,-0.003958330489695,-0.0020509248133748,0.0322976969182491,-0.01217823009938,-0.0006366181769408,0.0122190499678254,-0.0006692762835882,0.0083315689116716,0.0043539777398109,-0.0003658346249721,0.0109541183337569,-0.0064403200522065,0.003724543377757,-0.0062949047423899,0.0075863501988351,0.024910507723689,-0.0277625005692243,0.0028751888312399,0.0116218691691756,-0.0032182149589061,-0.0049891704693436,-0.0042865448631346,0.0091615850105881,0.0126402229070663,-0.006230036728084,0.0150956967845559,-0.0191379897296428,-0.0038101784884929,0.0284964405000209,-0.0225929971784353,0.0184876937419176,0.0194378793239593,-0.0103570213541388,0.0043731164187192,-0.0084078516811132,0.00852538831532,0.0066458201035857,0.0112557504326105,-0.0050756940618157,0.0091933254152536,-0.002260897308588,-0.0049118055030703,-0.0021077985875308,-0.0025194289628416,-0.0029836422763764,-0.0008819747599773,-0.0003951849648728,-0.0020414595492184,-0.0039825653657317,-0.0004409494576975,0.0001293760869884,-0.0022959751076996,-0.0005288872634992,-0.0018838588148355,-0.0027482158038765,0.0003158737090416,0.0003364438889548,-0.0001565974816912,0.0007589127635583,0.000659241573885,-0.0002424328849883,0.0016659586690366,0.0017258812440559,0.000952728325501,0.0009334620554,0.0007965265540406,-0.0003532183472998,0.001076974440366,0.0016907141543924,0.0007128524594008,0.0005968791665509,0.0007457652245648,0.0001700354478089,0.0010714546078816,0.0012896525440737,0.0014846688136458,0.0002652753028087,0.0011460541281849,0.0009452182566747,0.0013574701733887,0.0021857863757759,0.001107528922148,7.459592598024756e-05,0.0010448498651385,0.001525709638372,2.15670297620818e-05,0.0017966601299121,0.0011414921609684,0.0001651509810471,-0.0005738702602684,0.0008331754943355,-0.0003783106803894,0.0003162117791362,0.0005497327656485,0.00015929962683,-4.399309545988217e-05,0.0009523228509351,0.0009988717501983,0.0009001258295029,0.0001071581937139,-0.009752070531249,-0.0130311800166964,-0.0061451429501175,-0.0084285791963338,-0.0104933772236108,-0.0098376376554369,-0.0132244611158967,-0.0195280835032463,-0.0215420555323362,-0.0044322195462882,-0.0073242271319031,-0.0155633222311735,-0.0053300466388463,-0.0072906501591205,-0.0019021135522052,0.0032919361256062,0.0037974123843014,0.004852729383856,0.003738067112863,0.0022218991070985,-0.0007645693840458,0.0110936164855957,0.0114378798753023,-0.0003552682464942,0.0056513561867177,0.0018102555768564,0.0022781030274927,0.0045805885456502,0.003720099106431,0.0030876379460096,0.0020784437656402,0.0003614363959059,-0.0008101999410428,0.0011652748798951,0.0137560693547129,0.0013881294289603,-0.0028376351110637,-0.0009946209611371,-0.0053781121969223,-0.0020503958221524,-0.0020394925959408,-0.0029931706376373,-0.0009266038541682,-0.0011021721875295,-0.0024724164977669,-0.0048578204587101,0.0001113303005695,0.012922266498208,-0.0008776384638622,-0.0031291134655475,-0.0027308934368193,-0.0054354527965188,-0.0017456010682508,-0.0013567002024501,-0.0018623087089508,-0.0008853271719999,-0.0013366630300879,-0.0027928468771278,-0.0034574717283248,-0.0034423382021486,-0.0005181750166229,-0.0020798870828002,-0.0015876973047852,-0.0011481835972517,-0.0038307460490614,-0.0035300168674439,-0.0013966776896268,-0.0018118337029591,-0.0047861067578196,-0.0027963817119598,3.7339861592045054e-05,-0.0008979862905107,0.0006340968539007,-0.0003031691594514,-8.659810555400327e-05,0.000966059975326,0.0002655464923009,-5.675967986462638e-05,0.002119782846421,-0.0002265987277496,-0.000554522674065,-0.0001182452178909,0.0025328365154564,0.0014754784060642,0.0027763126417994,0.0013604336418211,0.0010668431641533,0.0014374648453667,0.0018244911916553,0.0010430542752146,0.0005705786752514,0.0014848132850602,0.001240691752173,-0.0013526629190891,0.0008004194241948,-0.0006694631883874,-0.0006952113471925,0.001052571227774,-0.0005301060155034,-0.0009421065915375,-0.0008319895714521,0.0005497189704328,-0.0009853835217654,0.0007345352205447,-0.0001959865767275,-0.0012704360997304,-0.0022215761709958,0.0003405192983336,-0.0009078518487513,-0.0001920710201375,0.0008397811325266,0.000355523370672,0.0001208861212944,-0.0003288720035925,-0.0004642101703211,-0.0002491313207428,-0.0001911457802634,0.0009118567686527,-0.0001522638194728,-0.0003614392480812,0.609000027179718,828586.0,0.609000027179718,0.609000027179718,61.0,1036.0,1,0.609000027179718,1.Sit/1036_B_1.csv,0.0100000500679016,1,1,0
360,0.0136470757424831,0.0253346730023622,0.0396254323422908,0.0328544825315475,0.0524175800383091,0.0193838011473417,0.031342290341854,0.0146268941462039,0.0221405737102031,0.0525219365954399,0.0506087318062782,0.0013668164610862,0.0197586435824632,0.0663606151938438,0.0199954062700271,0.0551628358662128,0.0184138398617506,0.0242809392511844,0.0484620705246925,0.0093830302357673,0.008821502327919,0.0430109091103076,0.032471414655447,0.0274028517305851,0.0776778981089592,0.035779982805252,0.0007381290197372,0.0953257828950882,0.0688172057271003,0.036053542047739,0.0655647069215774,0.0318425297737121,0.0714897811412811,0.0850479900836944,0.0616141557693481,0.0678655207157135,0.0603490099310874,0.0572103038430213,0.0699626579880714,0.0843059867620468,0.1570822745561599,0.0864029377698898,0.0365209691226482,0.1168372184038162,0.0377109944820404,0.05463557690382,0.0761467665433883,0.0615383796393871,0.0852259695529937,0.0533955171704292,0.0498034097254276,0.055123034864664,0.0936102867126464,0.0874781012535095,0.0474170781672,0.0227654632180929,0.080057606101036,0.0638937354087829,0.0556514970958232,0.080899104475975,0.0064904009923338,-0.0001276531256735,-0.004695136565715,0.005027974024415,-0.0028683524578809,-0.0015602586790919,-0.0078045637346804,-0.0004186907317489,-0.0079904217272996,0.0070501663722097,-0.0025679785758256,-0.0047395047731697,0.0068525541573762,0.006938696373254,0.0084218205884099,0.0044068535789847,-0.0082903336733579,0.0039983848109841,0.0037903271149843,0.0050793481059372,0.0020682346075773,0.0045817680656909,0.004344648681581,0.0093878535553812,-0.0001125587150454,-0.0112058352679014,0.0084325410425663,0.0098268706351518,0.0027650240808725,0.0157326851040124,0.0010910521959885,-0.00121880765073,0.0132482554763555,0.0167656149715185,0.0161673761904239,0.0115059316158294,0.0065051428973674,0.0150172673165798,0.0205222591757774,0.0093872230499982,0.0018914914689958,0.0144098438322544,0.0050436984747648,0.0062646423466503,0.0102725140750408,0.0009407610632479,0.008147832006216,0.0140076000243425,0.0141078252345323,0.005739789456129,0.0075648599304258,0.0186241157352924,0.0041966270655393,0.0089945122599601,-0.0015674643218517,-2.2062798961997032e-05,0.0043529672548174,0.0050017647445201,0.0192198809236288,0.0022234804928302,0.0642388015985488,0.0648739263415336,0.0665629506111145,0.0419002510607242,0.0534572824835777,0.0552551820874214,0.0607748664915561,0.0704735144972801,0.0782836005091667,0.0593549534678459,0.0193354096263647,0.0882308632135391,0.060779258608818,0.0186125878244638,0.0585874877870082,0.066682830452919,0.0788265168666839,0.0526989884674549,0.0498313046991825,0.0594650655984878,0.0691745206713676,0.0707705989480018,0.0626936480402946,0.0542085170745849,0.0361895486712455,0.0295781642198562,0.0966691002249717,-0.0058501847088336,0.0018516927957534,0.0523739457130432,0.0525653213262558,0.0390621721744537,0.0005579143762588,0.003578420728445,0.0228510797023773,0.0245968587696552,0.0150560233741998,0.0144408363848924,0.0085181817412376,0.0043402835726737,0.0120500661432743,0.0130208916962146,-0.0590744689106941,0.0259017646312713,0.0425620041787624,0.028784479945898,0.0210666097700595,0.0084313713014125,0.0330732204020023,0.026559779420495,0.0463927797973156,0.0340725220739841,0.0320538729429245,4.098936915397644e-05,0.0253599621355533,0.0789671838283538,-0.0175978913903236,0.01492290943861,0.0364843197166919,0.0557189024984836,-0.0043836291879415,-0.0046847742050886,-0.0012888014316558,-0.0044569615274667,-0.0038703866302967,-0.0044208099134266,-0.0059179794043302,-0.0058174668811261,-0.0026244823820888,-0.0036690409760922,-0.0039153434336185,-0.004826474469155,-0.00275325239636,-0.0051865023560822,-0.0022228055167943,-0.0036906581372022,-0.0041577317751944,-0.0031324992887675,-0.0024525101762264,-0.0029402163345366,-0.0012298232177272,0.0003955954744014,-0.0002661180333234,0.001650926657021,0.0032163634896278,0.0004278717387933,0.0033724601380527,0.0027888582553714,0.0002094317169394,0.0034945127554237,0.0001289140200242,0.0032841076608747,0.002736936090514,0.0018135810969397,0.0023455910850316,-0.0004342820320744,0.0019109459826722,0.0024102204479277,0.0006957798614166,0.0040560043416917,-0.0032089084852486,-0.0074795414693653,-0.0031433284748345,-0.00608636951074,-0.0054697054438292,-0.003735692705959,-0.0039144554175436,-0.005908113438636,-0.0035116234794259,-0.0044527542777359,-0.0045860377140343,-0.0035292108077555,-0.0037018617149442,-0.001964455936104,-0.0053846756927669,-0.0035687691997736,-0.0003762533015105,-0.0034105721861124,-0.0027148036751896,-0.0020302599295973,0.0122461402788758,0.001391168218106,0.0107925795018672,0.0065945112146437,0.0088307727128267,0.0096127605065703,0.0110214501619338,0.0113091235980391,0.003254551673308,0.0081117451190948,0.0134150953963398,0.0151041625067591,0.0028737103566527,0.0073429383337497,0.0071602929383516,0.0070967208594083,0.012397707439959,0.0049688415601849,0.0039454693906009,0.0032399732153862,-0.0046234373003244,-0.0054090796038508,-0.001401504734531,-0.0064731463789939,-0.0019006431102752,-0.0006290777819231,-0.011161939240992,-0.0087717771530151,-0.0018562891054898,-0.0056586265563964,-0.0060412609018385,-0.0078478958457708,-0.0100709404796361,-0.0085260821506381,-0.0093027604743838,-0.0077762338332831,-0.010953121818602,-0.0157057251781225,-0.0264711547642946,-0.0304507222026586,-0.0097334329038858,0.0181692782789468,0.0033658810425549,0.0075374720618128,0.0121642034500837,0.0028435124550014,0.0126943700015544,0.0103091578930616,0.0169347114861011,0.0203730519860982,0.0165630877017974,0.0150219658389687,0.0148961097002029,0.0227153580635786,0.0223283097147941,0.0204041823744773,0.0093938587233424,0.0130130844190716,0.0105356555432081,0.010860051959753,-0.0029133725911378,-0.0002262583002448,-0.0007218669634312,-0.0003921889001503,-0.0007913694716989,-0.0011296422453597,6.787449819967151e-06,-0.000832216697745,-0.0018035260727629,-0.000911092152819,-0.0004289475618861,-0.0020458330400288,0.0011538127437233,-9.430490899831057e-05,-0.0023265169002115,-0.0017096739029511,-0.001688927761279,9.297271026298404e-05,0.0005439593223854,0.00126369507052,0.0033693769946694,0.0025941240601241,0.0015497258864343,0.0010313265956938,0.000484953430714,0.0007265058811753,0.0029122987762093,0.00348448054865,-0.0014467011205852,0.0002607925562188,0.0007413640851154,0.0006168362451717,0.0028030052781105,0.0002714555012062,1.6966485418379307e-05,0.002674460876733,0.0034303036518394,0.0049426155164837,0.0032549379393458,0.0047653573565185,0.0039658518508076,0.0002434308844385,0.0015651906142011,-0.0022261985577642,-0.002664593514055,0.0006026517949067,-0.0020701359026134,-0.0034777447581291,-0.0026084394194185,-0.0037866723723709,-0.0028834668919444,-0.0013938659103587,-0.0042348722927272,-0.0046946271322667,-0.0048042009584605,-0.004023399669677,0.0002898025559261,-0.0037532281130552,-0.0015263253590092,-0.0015826524468138,5.109000205993652,898122.0,5.110000133514404,5.109000205993652,361.0,1044.0,1,5.110000133514404,1.Sit/1044_B_1.csv,0.0100002288818359,1,6,0
341,0.0037810774520039,0.0016632202314212,-0.0019381274469196,0.0114869456738233,6.494810804724693e-06,-0.0119320210069417,0.0154773332178592,0.0091417264193296,-0.0027235383167862,0.0102723063901066,-0.0310339368879795,0.0335346162319183,-0.0095486473292112,-0.0088730631396174,0.0043019568547606,-0.0149007812142372,-0.0021266639232635,0.0143254529684782,0.0053387396037578,0.0251798033714294,-0.0134577462449669,-0.0207672789692878,0.0059223687276244,-0.0183791350573301,0.0140218362212181,-0.0102193774655461,0.008546020835638,0.0037342766299843,2.3329630494117737e-07,0.0039618057198822,0.0025691604241728,0.0098596215248107,0.0128811271861195,-0.0320012606680393,0.0177393592894077,-0.0194361433386802,0.004266049247235,0.0093567185103893,-0.0178057998418808,0.0081427572295069,0.000791395897977,-0.0003688703291118,-0.0053263329900801,0.0014704017667099,0.0156144518405199,-0.0314995124936103,0.0058201206848025,-0.0207167696207761,0.0115778474137187,0.0024882867000997,0.0022627767175436,0.0003711524186655,-0.0224141366779804,0.0032392428256571,0.0028588194400072,-0.0019142009550705,0.0385584235191345,-0.0242930054664611,-0.0015390114858746,-0.0048486809246242,-0.0018812825437635,0.0013528207782655,-0.0035562010016292,0.0140878083184361,0.0113893179222941,-0.0154395326972007,-0.0058157434687018,0.0080617135390639,-0.0117509737610816,0.0310089047998189,-0.0261069480329751,-0.0090826582163572,-0.0011140890419483,-0.0067260023206472,-0.0035317412111908,0.0040331771597266,-0.0046091373078525,0.0021994241978973,-0.0184828583151102,0.0084105394780635,-0.0010952781885862,-0.0097388448193669,0.0052666878327727,-0.0056294398382306,0.0057427147403359,-0.010446916334331,0.0035192684736102,-0.0121490294113755,-0.0055882539600133,0.0180327109992504,-0.0165755357593297,-0.0075253630056977,0.0175172202289104,-0.0204851385205984,0.0179118625819683,-0.0031782984733581,-0.0147633217275142,-0.0015554560814052,-0.001444942667149,-0.0040461905300617,-0.004388834349811,0.0078993709757924,-0.0224176738411188,-0.0030758248176425,0.0067960591986775,-0.0140442969277501,0.0105204135179519,-0.0114655783399939,-0.0100502464920282,-0.0005342531949281,0.0091625330969691,-0.0031579222995787,-0.001206325367093,0.003118593012914,-0.0242942683398723,-0.0031001209281384,0.0118944030255079,-0.0305331498384475,0.0401531159877777,9.669829159975052e-05,0.0026828381232917,0.0001773847034201,0.0043579302728176,-0.0006957963341847,0.0002954524825327,0.0164447147399187,0.0179522819817066,-0.0147782862186431,0.0040913168340921,-0.018265375867486,0.0161711201071739,-0.0060819457285106,0.0016874140128493,0.0204164143651723,-0.0127320382744073,0.0150330942124128,-0.0095400661230087,-0.0043632364831864,-0.0066719404421746,-0.0095131676644086,-0.0001391909318044,0.0065622958354651,-0.0168445408344268,0.0051829614676535,0.0050654457882046,-0.0072871376760303,-0.0009370169136673,0.0012448120396584,0.0139556061476469,-0.0169370155781507,0.0018248141277581,0.0314287953078746,-0.0255698896944522,0.0122291985899209,-0.0198954325169324,0.0014088787138462,0.0111493691802024,-0.0063800644129514,0.0065205642022192,0.0095844808965921,-0.0100103393197059,0.0220322292298078,-0.0164815504103899,0.00793691072613,-0.0091702491044998,0.0131046418100595,-0.0145940463989973,-0.0052186958491802,-0.0025655510835349,-0.0136778559535741,0.003540857695043,0.0034621825907379,-0.0006896940758451,0.002388073131442,-0.0096295289695262,0.0331357344985008,0.0037165044341236,-0.0017359901685267,-0.017537860199809,-0.0114979464560747,0.0012991175753995,0.0013016746379435,0.0009055944392457,-0.0011054639471694,-0.0016851489199325,-8.87064088601619e-05,0.0003413344384171,0.0026923981495201,-0.0005935981171205,0.0010092897573485,0.0016471516573801,0.0002927687892224,0.0033379166852682,0.0009297569049522,0.0014408463612198,-0.0003436030528973,4.6406319597736e-05,-0.0004127575375605,0.0004825758805964,0.0017027271678671,0.002151011256501,0.0018062146846204,0.0004795472486875,0.0002351300790905,-0.0004562481481116,-0.0010825460776686,4.389812238514424e-05,0.0008031515171751,0.0012698378413915,-0.0008182305609807,0.0004338409926276,-0.0015721746021881,0.0020164705347269,0.001245868159458,-0.0012442030711099,0.0001908674603328,-0.0013829754898324,-0.0003819644043687,-0.0001924948592204,-0.0002238942834082,-0.0001962114765774,0.0012312290491536,-0.0014774525770917,-0.0004411596746649,-0.0003000679134856,7.138337241485715e-05,-0.0011880079982802,-0.0025085643865168,-0.0011075409129261,0.0007810501265339,0.001692866324447,0.0021514387335628,0.003400145098567,0.0005760967032983,0.0009338032105006,0.0010520512005314,0.0012679990613833,0.0011708750389516,-0.0005610242951661,-0.0003591392596717,-0.0068278717808425,-0.0062282532453536,-0.0066904826089739,-0.0031839464791119,-0.0045417258515954,-0.0034711426123976,-0.0020448619034141,0.0056941676884889,0.0053189764730632,0.0112574575468897,0.0080196671187877,0.0035407841205596,0.0082016978412866,0.0031147939153015,0.0041992915794253,0.0001710523501969,-0.0022728736512362,-0.0013028261018916,0.00064126343932,0.0047831544652581,0.013364196754992,0.0044018835760653,0.0056490032002329,-0.0006578624015673,0.0013775846455246,-0.0006003025337122,-0.0017606668407097,-0.0001254924427485,-0.0023083474952727,-0.0057570068165659,0.0023298659361898,-1.7847050912678242e-06,0.008958120830357,0.0061584264039993,0.0066803027875721,0.0093988142907619,0.0010106915142387,0.0064912475645542,0.0027494681999087,0.0036539873108267,0.0031936890445649,0.0034474122803658,0.003595937276259,-0.0002512616629246,0.0073177791200578,0.0014885149430483,-3.0018447432667017e-05,-0.0012319694506004,-0.0023241313174366,-0.0004751169472001,0.0013954534661024,0.0017392472364008,-0.0039550298824906,-0.0096300514414906,-0.006139279808849,-0.0119621008634567,-0.0057997815310955,-0.0007537145866081,-0.009766723960638,-0.0066710952669382,-0.0021609351970255,-0.0012264810502529,-0.003387926146388,-0.0025270297192037,-0.0012845583260059,-0.0008814488537609,-0.0007297825068235,0.0005932135973125,0.000729872030206,0.0029632123187184,0.0004165018908679,0.0022524986416101,0.0018742830725386,0.0009438527049496,3.458090941421688e-05,0.0005882369587197,-0.0013411104446277,-0.000827103620395,-0.0003774076758418,0.0029398719780147,0.0024188430979847,0.0001960913068614,0.0012413446092978,-0.0010402617044746,0.000945767504163,-1.950518344528973e-05,-0.0004700680729001,-0.0012405524030327,0.0004753877292387,-0.0014911172911524,-0.002032280433923,-0.000393030088162,0.0022416673600673,0.000350505055394,0.0032499684020876,0.0015038616256788,0.0012646157993003,0.0028143189847469,0.0008313080761581,0.0007567181019112,0.0003843975719064,-0.0001603380951564,-0.0015178160974755,-0.0004048609989695,0.0039617652073502,0.0010563512332737,0.000409587577451,-0.0002534238446969,0.0009944286430254,-0.0007745229522697,-0.0004387997032608,0.0003363740979693,-0.0016598643269389,-0.0026627099141478,-0.0034428788349032,-0.0044231638312339,1.6289035556837916e-05,-0.0022924286313354,-0.0023194276727735,-0.0030214414000511,9.71500015258789,711299.0,9.715999603271484,9.71500015258789,961.0,1020.0,1,9.715999603271484,1.Sit/1020_B_1.csv,0.0109996795654296,1,16,0
357,-0.0185425374656915,0.0007496662437915,-0.0160297565162181,-0.0024510137736797,-0.0085358927026391,0.0002921894192695,-0.0234263986349105,0.0018229223787784,0.0071004871279001,-0.0199745334684848,-0.0055926823988556,-0.0452902913093566,-0.0119459554553031,-0.0103640956804156,-0.0148028908297419,0.0116907078772783,-0.0027899648994207,-0.0024094227701425,-0.0494777336716651,-0.021741833537817,0.0326662361621856,-0.0196150187402963,0.0021338853985071,-0.0184619687497615,-0.049324981868267,0.0136606246232986,-0.0192736685276031,-0.0275760199874639,0.0055783204734325,-0.0162672493606805,-0.0276595614850521,-0.0364997424185276,0.0100663322955369,-0.016042124480009,-0.0609364211559295,-0.0121031422168016,-0.0260074287652969,-0.0064687635749578,-0.0510775409638881,0.011293202638626,-0.0098019149154424,-0.0295201055705547,-0.0129263503476977,-0.0239879414439201,-0.0042751906439661,-0.0431483313441276,-0.0173908732831478,-0.0357007086277008,-0.0160275381058454,-0.0191539339721202,-0.0127597758546471,-0.0078435214236378,-0.0111267045140266,0.0100253764539957,-0.0212863963097333,0.0201271809637546,-0.055677268654108,0.0164183862507343,-0.0149949844926595,-0.0698906332254409,-0.0193899758160114,-0.010832411237061,-0.0024388073943555,0.0235083252191543,-0.0081005534157156,-0.0213506985455751,0.0041844611987471,0.003368733683601,0.0132351322099566,-0.0166596546769142,-0.0041014878079295,0.0031553329899907,-0.001208137255162,0.0131564522162079,-0.0133582297712564,-0.0010940028587356,-0.0056878789328038,-0.018653130158782,0.0083084180951118,0.0155875794589519,-0.0242003593593835,-0.019063526764512,0.0061377068050205,0.0201900042593479,-0.0091805588454008,-0.0152217717841267,0.0061975414864718,0.0011139552807435,-0.0176894515752792,-0.0047979238443076,-0.0046673323959112,-0.0086588580161333,-0.0150132346898317,0.0119887767359614,0.0077430387027561,0.0030226323287934,-0.015194839797914,0.0081701837480068,0.0033927140757441,0.0020918289665132,-0.0135796293616294,-0.0176918040961027,0.003363287076354,0.0086084837093949,0.0069025997072458,0.0168551616370677,0.0054069533944129,-0.0207653827965259,-0.019495403394103,-0.0152130555361509,0.0087324753403663,-0.0043669971637427,-0.0159738566726446,0.0080970525741577,-0.0089657818898558,-0.0061226701363921,-0.0050581395626068,0.0024151972029358,-0.002219004323706,0.0053601786494255,0.0095535516738891,0.0376895032823085,0.0122792851179838,0.0262778680771589,0.0080825686454772,0.0080105401575565,0.0287751462310552,0.0024593118578195,0.0098696481436491,0.0479939877986907,0.0400493666529655,0.031039260327816,-0.003505915403366,0.0186558216810226,0.0177772901952266,0.0007072985172271,-0.0023660194128751,0.0193660929799079,0.0409057810902595,0.0146830650046467,0.0406614392995834,0.0059977117925882,0.0279487911611795,0.023564888164401,-0.0014078877866268,0.0421782471239566,0.0160093046724796,0.0377964600920677,-0.000795591622591,-0.0009306669235229,0.0457474216818809,0.0335323773324489,0.0250288974493742,-0.0185223743319511,0.0554670616984367,0.0193335004150867,0.0007969085127115,0.0373723171651363,0.0416019409894943,0.0276237037032842,-0.0040312930941581,0.0376343615353107,0.0225694626569747,0.0463051125407218,-0.0097961872816085,0.0259149931371212,0.0273817721754312,0.0141115458682179,0.0396411158144474,0.0069146454334259,0.0520156882703304,0.0090468768030405,0.0063538625836372,0.0208544544875621,0.0341333784162998,-0.0085873641073703,0.0255307741463184,0.0537421852350235,-0.0288728587329387,0.0376660302281379,0.0007915996247902,0.0003065294586122,-0.0040981811471283,-0.0010968425776809,-0.0015160540351644,-0.0014791631838306,-0.0023274095728993,-0.0012766587315127,0.0067653129808604,-0.0033314116299152,0.0027333574835211,0.0001450257695978,0.0017921198159456,-0.0005962597206234,-0.0031827876809984,-0.0023194488603621,-0.001233595306985,-0.0007531334413215,-0.0036665694788098,0.0006182245560921,0.0004228995530866,-2.988243795698509e-05,-0.0002419489901512,0.0077064312063157,0.0048876833170652,0.0022847100626677,0.0007416512817144,0.0021875244565308,0.0012114979326725,0.0038259727880358,0.0017691814573481,0.0046620457433164,0.001555691473186,0.0019268355099484,0.004226938355714,0.0016439626924693,0.003891060128808,-0.0025002344045788,-0.0018948406213894,0.0003437810810282,0.0005995676037855,0.0028346849139779,0.0019549701828509,0.0025861356407403,7.775711128488183e-05,-0.0004581853863783,-0.0024634676519781,-0.0006730958702974,4.910927964374423e-05,-0.0004300455329939,-6.022480010869913e-05,0.0008690615068189,-0.0010427901288494,-0.0003921220195479,-0.0002586189657449,-2.014596248045564e-06,-0.0001566449791425,-0.0014804649399593,-0.001293770968914,-0.0042006317526102,-0.0377254895865917,-0.0323134586215019,-0.0294989217072725,-0.0269343722611665,-0.0245822016149759,-0.0197363030165433,-0.0192185901105403,-0.0213843379169702,-0.0064391861669719,-0.0091494685038924,-0.0082889785990118,-0.0093675479292869,-0.0209597274661064,-0.0131357200443744,-0.0155818555504083,-0.0119845476001501,0.0008462322875857,0.0065297214314341,0.0110279805958271,-0.0001291064545512,0.0080473953858017,0.0124861430376768,0.0153706930577754,0.0280210375785827,0.010695056989789,0.0118767526000738,0.0191880278289318,0.0130712706595659,0.0200461838394403,0.0306515134871006,0.0266155488789081,0.0172935184091329,0.0166676249355077,0.0336705222725868,0.0278919450938701,0.024693239480257,0.0155801940709352,0.0136552583426237,0.0064073195680975,-0.0012242710217833,0.0120292361825704,0.0030602561309933,0.0026412485167384,0.0004860977642238,0.0022610509768128,0.0006455895490944,-0.0052792634814977,-0.0094081657007336,-0.015701413154602,-0.0154088009148836,-0.0218144841492176,-0.0134762804955244,-0.0099969059228897,-0.003159710438922,0.002843502908945,0.0133843719959259,0.0128351412713527,0.0086539722979068,0.0348493941128253,0.0056797033175826,-0.0016980846412479,-0.0034666792489588,-0.0034945814404636,-0.0017562517896294,-0.0012971225660294,-0.00100800069049,-0.0036767395213246,-0.0010859579779207,-0.0066937818191945,-0.0081696873530745,-0.0043635354377329,-0.0043041026219725,-0.0015189747791737,-0.0014852078165858,-0.002146128565073,-0.0005281104822643,0.0008182962774299,0.0001794147538021,0.0009104887139983,0.0042077987454831,0.0034099232871085,0.0020793005824089,0.0018434897065162,0.0037371572107076,0.0021566483192145,5.079779657535255e-05,0.0016094227321445,0.0009557592566125,0.0013256773818284,0.0002804644173011,-0.0001817001902963,-0.0004061805375386,-0.0030526192858815,-0.0013797283172607,-0.0019108408596366,0.0027002547867596,0.0017793285660445,0.0007976340712048,0.0015042850282043,0.0008767753024585,0.0021219032350927,-0.0007517986232414,-0.001465095905587,-0.0015439700800925,0.0001819525205064,0.0009750876924954,0.0015378708485513,0.0022014938294887,-0.0002284614602103,-0.0010254234075546,-0.0032872227020561,-0.0013780973386019,-0.0020666844211518,-0.0009611683199182,-7.06649589119479e-05,0.0005320570198819,-0.000333613861585,0.0003707433352246,0.0050734896212816,0.0014315058942884,3.6489999294281006,1115027.0,3.658999919891357,3.6489999294281006,361.0,1079.0,1,3.658999919891357,1.Sit/1079_B_1.csv,0.0109999179840087,1,6,0
446,-0.0154653145000338,-0.0396272353827953,-0.0102758910506963,-0.0119405295699834,-0.035716563463211,0.0036274846643209,-0.0342512838542461,-0.0134129840880632,-0.0158000402152538,-0.0302577000111341,-0.027881309390068,-0.0569113120436668,-0.0237798392772674,-0.0119335893541574,-0.0419985316693782,-0.0298992414027452,-0.0116958143189549,-0.0431693159043788,-0.0100051183253526,-0.0448964312672615,-0.019973762333393,-0.0253074560314416,-0.0095586823299527,-0.0401937440037727,-0.0110132563859224,0.0003918129950761,-0.10796420276165,-0.0104897795245051,-0.0426928699016571,-0.0430556014180183,-0.0113368863239884,-0.0236835218966007,-0.0339300893247127,-0.0278467051684856,-0.0245325379073619,-0.018344635143876,-0.0345244370400905,-0.0468336641788482,0.0117385815829038,-0.0337328538298606,-0.033420592546463,-0.0328146293759346,0.0024994388222694,-0.0054821800440549,-0.0779189616441726,-0.0086520314216613,-0.047685258090496,-0.0143906567245721,-0.0340532138943672,-0.0432883575558662,-0.0067540034651756,-0.0325438529253006,-0.0309611968696117,-0.0318449363112449,-0.0392009802162647,-0.0364569090306758,-0.0076401159167289,-0.0189431719481945,-0.0206628106534481,-0.0205722618848085,0.0088550439104437,-0.0117552476003766,0.0069475499913096,0.0176640525460243,0.0074486760422587,-0.0016986170085147,0.0018506306223571,-0.0229225121438503,0.0107987020164728,-0.0304202772676944,0.017592366784811,0.0149812446907162,-0.0002505215816199,-0.0110763823613524,-0.0020032003521919,-0.0065282797440886,-0.0015912622911855,-0.003671171143651,0.0133981872349977,0.0053133992478251,0.0022766310721635,-0.0055746627040207,0.0010078768245875,-0.0015898769488558,0.0078808981925249,-0.0125100603327155,-0.0058876955881714,0.0249315816909074,0.0008898994419723,-0.0222788248211145,0.0014539303956553,0.0323142521083354,-0.020032737404108,-0.0064610475674271,-0.0167517457157373,0.0120187532156705,0.0251638889312744,-0.036572940647602,-0.0101131526753306,0.0254800114780664,0.0264191627502441,0.0054049286991357,-0.006780101917684,0.0077149737626314,-0.0327253006398677,0.0133188953623175,0.0059686810709536,0.004441000521183,0.0191699303686618,-0.0091808307915925,-0.0066067911684513,-0.0160480178892612,0.0117770433425903,0.0057991244830191,0.0019773084204643,-0.0117599470540881,7.233710493892431e-05,-0.005985751748085,-0.0032056011259555,-0.0006120629841461,0.0195975676178932,0.0283237174153327,0.0030211601406335,0.0081845056265592,0.0222444776445627,0.0027832016348838,0.0303798839449882,0.0040039699524641,0.0267156343907117,0.0296517796814441,-0.0043075811117887,0.0653205215930938,-0.0167960785329341,0.0447413399815559,0.0517577640712261,0.0033490527421236,0.0259982738643884,0.0251233242452144,0.0187479704618453,0.0502173081040382,0.0328252464532852,0.020089654251933,0.0109402881935238,0.0362179167568683,0.0489091649651527,-0.0340492613613605,0.0575062669813632,0.0825252681970596,-0.0039566587656736,0.0371295250952243,0.0507206469774246,0.0143893789499998,0.0451801270246505,0.0299029909074306,0.0194194242358207,0.0241924710571765,0.0406729616224765,0.0014005471020936,0.0249528344720602,0.0427900552749633,0.0109641766175627,0.0304700657725334,0.0587286464869976,-0.0332831628620624,0.0400091484189033,0.0406719930469989,0.0190182775259017,0.0329710207879543,0.0406941324472427,0.0087500745430588,0.0299648717045784,0.0146143026649951,0.027935491874814,0.0519283004105091,0.0415102541446685,0.0413587689399719,0.0159766972064971,0.0246376097202301,0.0229879654943943,0.011150230653584,0.0047472803853452,0.0046879379078745,-0.0004410427936818,0.0018612067215144,0.0005614915280602,0.000334311829647,-0.0018773433985188,0.0008537995745427,-0.0025522098876535,0.0033609920646995,-0.0011086814338341,-0.0027331591118127,-0.0014014113694429,-0.0056034768931567,-0.0019321754807606,0.000434157118434,-0.001009063096717,-0.0023015732876956,-0.0019474426517263,-0.0022300456184893,-0.0004364590568002,-6.272029713727534e-05,-0.0048227440565824,-0.0043397429399192,-0.0031556724570691,0.0025177157949656,-0.0048061530105769,-0.0052416902035474,0.000569486641325,-0.0029368826653808,0.0029941031243652,0.0013008603127673,-0.0035987540613859,-0.0011644656769931,0.0010307799093425,0.0007528862333856,-0.0007165175629779,0.0043570143170654,-0.001987159717828,0.0034621469676494,0.001620330964215,-0.0037901154719293,-0.0013861507177352,0.000878193299286,-0.0011181565932929,0.0003865882463287,0.0025197833310812,-0.0005390992155298,-0.0001673336373642,-0.0001851087581599,-0.0017407545819878,0.00146194268018,-0.0022130971774458,-0.0004038467595819,-0.0001586246944498,-0.0004866153758484,-0.0005685362848453,-0.0016528174746781,0.001930973958224,0.0023949074093252,-0.0382733643054962,-0.0368367955088615,-0.0425381101667881,-0.0261980649083852,-0.0235615894198417,-0.0166765619069337,-0.0046961838379502,-0.0098616825416684,0.0071742120198905,-0.00021234434098,0.0125305000692605,0.0101967230439186,-0.0053129117004573,0.0063668289221823,0.0012500206939876,-0.0020505329594016,0.0075725917704403,0.0081508755683898,0.0106939282268285,0.0162239763885736,0.0119141675531864,0.0116243716329336,0.0187035650014877,0.0303846225142478,0.014056222513318,0.0419623255729675,0.0441991798579692,0.0106533076614141,0.0195862017571926,0.0092517491430044,0.0033791358582675,0.0108958445489406,0.0075649139471352,0.0037256241776049,0.0044625499285757,0.0016141198575496,0.005373393651098,-0.0068763755261898,-0.0026443826500326,0.0109886769205331,0.001916266977787,0.0080103408545255,-0.0031624182593077,0.0229375790804624,0.0210002306848764,0.0021235770545899,0.00232858909294,-0.002203157171607,0.0049048061482608,-0.0032323140185326,-0.0071864379569888,-0.0057703284546732,-0.010074570775032,-0.0143601540476083,-0.0266846511512994,-0.0447423569858074,-0.0572679452598094,-0.0502631589770317,-0.0483605153858661,-0.040487702935934,0.0010280646383762,0.000635350937955,-0.0032345021609216,0.0010948694543913,-0.0017040914390236,0.0017550428165122,-0.0019096960313618,-7.862146594561636e-05,-0.0025224883574992,-0.0001227396423928,-0.0001629550242796,-0.0011505760485306,-0.0010937338229268,0.0004724250757135,-0.0014361299108713,-0.0003813219373114,-0.0005089640035293,-0.0030020345002412,-0.0014251370448619,-0.0010305778123438,0.0011961557902395,0.0016784556210041,-0.0006139584002085,-0.0003132505808025,-0.0013892389833927,0.0025023606140166,0.0007513009477406,0.0003243421670049,0.0016819392330944,0.001901107141748,0.0039384593255817,0.0010946172988042,-0.0011899705277755,0.0007631002808921,0.0005271870177239,-0.000161507006851,-0.0003297267248854,-0.0012484040344133,0.0032785846851766,0.0019034639699384,-0.0010589143494144,0.0022451565600931,-0.0034448707010596,0.0044221458956599,0.0005356929614208,0.0007918515475466,0.0011284715728834,0.0019082254730165,0.001213866402395,0.0003636025940068,0.0011009853333234,0.0008824652177281,-0.0009673468302935,1.8287373677594587e-05,-0.0014533525099977,-0.004348843358457,-0.0028302872087806,-0.0020470491144806,-0.000378587457817,0.001321896794252,5.473999977111816,867313.0,5.486000061035156,5.473999977111816,541.0,1040.0,6,5.486000061035156,1.Sit/1040_B_6.csv,0.0110001564025878,1,9,0
284,0.0643352419137954,0.0750210881233215,0.0638573542237281,0.0770496428012847,0.0378962643444538,0.0722642764449119,0.0640669763088226,0.057359293103218,0.0727878361940383,0.0581682994961738,0.0554879829287529,0.0619418993592262,0.0990242958068847,0.0569809153676033,0.0571443662047386,0.0525632426142692,0.0783034190535545,0.0554976239800453,0.0589928030967712,0.0299197807908058,0.0544661730527877,0.0453916117548942,0.0624611526727676,0.0147729367017745,0.035045102238655,0.0519236624240875,0.0633948594331741,0.031036227941513,0.0262292735278606,0.0516806878149509,0.0240477062761783,0.0231375992298126,0.0456372499465942,0.059167057275772,0.0417299941182136,0.0346999652683734,0.0498238168656826,0.0354019813239574,0.0295883696526289,0.044672954827547,0.0345109887421131,0.0359416529536247,0.0279100723564624,0.0508828461170196,0.0194729547947645,0.0693920999765396,0.0515246391296386,0.0280402265489101,0.0469162538647651,0.0478367172181606,0.0561074763536453,0.0366040803492069,0.0452041402459144,0.0499841421842575,0.0470771007239818,0.0412862859666347,0.0405698716640472,0.051589947193861,0.0522966906428337,0.0567505806684494,-0.0102972965687513,0.0260878521949052,-0.002509559970349,-0.0089162737131118,0.0227870009839534,-0.0040261945687234,0.0099751707166433,-0.0039403364062309,-0.0099010476842522,0.0016709197079762,0.013716235756874,-0.0073092612437903,-0.0105316853150725,0.020470343530178,0.0230628903955221,-0.001177905476652,-0.010479561984539,-0.0033795498311519,-0.0060547357425093,0.0287976153194904,0.0190629959106445,0.0185143183916807,0.0104869529604911,-0.0224493220448493,-0.0067068436183035,-0.0261956341564655,-0.004466482438147,0.0180627033114433,0.030458802357316,0.029621010646224,0.0151579910889267,-0.0016890597762539,-0.0593504235148429,-0.0582641512155532,-0.0184886492788791,-0.0076810610480606,0.0280682723969221,0.0474222674965858,0.0238961465656757,0.0312843136489391,0.0038433200679719,0.0074121304787695,-0.0080077294260263,-0.0181671548634767,-0.022255441173911,-0.0193888917565345,-0.0272514335811138,-0.0118792047724127,0.0405228547751903,0.0082071144133806,-0.0498585626482963,0.0173099767416715,0.0146385077387094,-0.018028937280178,-0.0036259591579437,0.0095613067969679,0.0054001221433281,-0.0152969835326075,0.0018415785161778,0.0091850915923714,0.0350684039294719,0.0119139347225427,0.0063607990741729,0.0163043644279241,0.0230934303253889,0.0232765153050422,0.0137367732822895,0.0124828107655048,0.0390654690563678,0.0141232889145612,-0.0081572607159614,0.0202568769454956,0.0117971077561378,0.0058678016066551,0.0178723763674497,0.0339724123477935,0.0144518129527568,0.0228488221764564,0.0294601339846849,0.0435095354914665,0.0375381894409656,0.0414981245994567,0.0220301933586597,0.0365931019186973,0.0522129088640213,0.0327661335468292,0.038513921201229,0.0355499535799026,0.0520307272672653,0.0338125079870224,0.047828771173954,0.0601995959877967,0.0387724377214908,0.0427693575620651,0.062012605369091,0.01677006483078,0.0371963381767272,0.0212808884680271,0.0328357890248298,0.038611315190792,0.0358871184289455,0.0475232601165771,0.0454873293638229,0.0521372258663177,0.0507308766245842,0.0549908280372619,0.0212955996394157,0.0398432947695255,0.0465169437229633,0.0355867855250835,0.0378351621329784,0.0554219372570514,0.0378799177706241,0.0485022626817226,0.0492418967187404,0.0430723503232002,0.0541162192821502,0.0323527939617633,0.0584404319524765,0.0516312420368194,0.0038771003019064,0.003730138298124,0.003976815380156,0.0009875524556264,0.001703466521576,0.0024745755363255,0.0009170228731818,-0.0002166553167626,0.0008142316946759,-0.0008909705793485,0.0008512723725289,0.0035999279934912,-0.0007312765228562,-0.001626613899134,-0.0018175009172409,0.0015800195978954,-0.0006006155745126,-0.0022991113364696,-0.0032359892502427,-0.0037602570373564,-0.0047845742665231,-0.0062123662792146,-0.0060629667714238,-0.0017829784192144,-0.0010807474609464,0.0029944386333227,0.0004897522740066,-0.002970490604639,-0.0010936178732663,-0.0085310852155089,-0.0096241794526577,0.0011834015604108,0.0039933617226779,0.0050278669223189,0.0142206726595759,0.0165864713490009,0.0098924292251467,0.0054829511791467,0.0010607208823785,-0.0045906831510365,-0.0039781550876796,-0.006879006512463,-0.0044718980789184,-0.0030669560655951,0.0005212030373513,0.0029293792322278,0.0003395540697965,0.0022757432889193,0.0038288151845335,-0.0006726450519636,-0.0004149580199737,-0.0001705505419522,-0.0014555577654391,0.0017363860970363,-0.0009634780581109,-0.001281396835111,0.0017711406107991,0.0010929689742624,-0.0005833405884914,1.135166621679673e-05,-0.0147570231929421,-0.0061369384638965,-0.011843791231513,-0.0117195062339305,-0.0168077517300844,-0.0122515084221959,-0.0041000349447131,-0.0122313285246491,-0.0074700932018458,-0.0034488376695662,-0.0087717659771442,-0.007645952515304,0.0027190393302589,0.0060795503668487,0.0078943222761154,0.004169805906713,0.0152280824258923,0.0154720423743128,0.02170523814857,0.0171065870672464,0.0134062701836228,0.0171331912279129,0.0213906839489936,0.0037621879018843,0.0034824393223971,0.0021386868320405,0.0112859150394797,0.0051204613409936,-0.0004586294526234,0.0084937755018472,-0.0023127116728574,-0.0076962644234299,-0.0068583027459681,-0.0001421134948031,-0.0035382225178182,-0.0082768481224775,-0.0017811155412346,0.0066944621503353,-0.0010084627429023,0.0053333886899054,0.0008461554534733,-0.0007810952374711,-0.0036985508631914,-0.0124393794685602,-0.0233889352530241,-0.0086105167865753,-0.0075032748281955,-0.0172019340097904,-0.0126026207581162,-0.0169977433979511,-0.0152686955407261,-0.0100081292912364,-0.0055568092502653,-0.0104393241927027,-0.0056814546696841,-0.0090804137289524,-0.0087692271918058,-0.0046435259282588,-0.007704360410571,0.0034156972542405,0.0015089783119037,0.0054684202186763,0.0020540603436529,-7.469998672604561e-05,0.0022636188659816,0.0038730502128601,0.0046417438425123,0.0022107018157839,0.0002102364087477,0.0021021533757448,0.0007669164333492,0.0013930223649367,-0.0001538048963993,0.000142675533425,2.9388844268396497e-05,-0.003544089384377,-0.002461087424308,-0.0025975953321903,-0.0035285663325339,-0.0004178738745395,-0.0017264491179957,0.0036616052966564,0.0020850487053394,-0.00051931431517,0.0005491185002028,-0.0039285686798393,-0.0035587749443948,-0.0022214686032384,0.0010627380106598,0.0048768068663775,0.0023128227330744,0.000854198122397,-0.0052596209570765,-0.0084233656525611,-0.0065669119358062,-0.0102825993672013,-0.013286112807691,-0.003921537194401,-0.0034340564161539,8.76010162755847e-05,0.0040752124041318,0.0056371591053903,0.0093383733183145,0.0073295328766107,0.0086057530716061,0.0097044156864285,0.0025955473538488,0.0030807931907474,0.0055371108464896,0.0056216297671198,0.0012119084130972,0.0044911801815032,0.0062443288043141,0.0003486798959784,0.0030624407809227,0.0025650563184171,0.0050969677977263,0.0017837267369031,0.0010830622632056,0.0023376778699457,2.813999891281128,606055.0,2.812999963760376,2.813999891281128,181.0,1007.0,1,2.812999963760376,1.Sit/1007_B_1.csv,0.0099999904632568,1,3,0
402,-0.0090079475194215,0.0020673186518251,-0.0091313486918807,-0.018613988533616,-0.0081836208701133,-0.0112929539754986,-0.0039884708821773,0.0025437292642891,-0.0145421586930751,0.0053675076924264,-0.0009274915792047,-0.0216208472847938,0.0214911270886659,-0.0115786679089069,-0.0139424148947,-0.0077998470515012,-0.0013422542251646,-0.0197753589600324,-0.0102732051163911,-0.0037446524947881,-0.0041224444285035,-0.0176903530955314,-0.0008443449623882,-0.0050094770267605,-0.0056861615739762,-0.0037042766343802,-0.0259088482707738,0.0212547965347766,-0.007160292007029,-0.019839122891426,0.0015099989250302,-0.0067514679394662,-0.0155558194965124,0.0137722380459308,-0.0112417973577976,-0.0441822707653045,0.0258699189871549,0.0256829895079135,-0.0210738908499479,0.0098377093672752,0.0094434991478919,-0.0077392174862325,-0.0198811963200569,0.0059950430877506,-0.0236390978097915,0.0046155671589076,0.0119292698800563,-0.0228899698704481,-0.0051653198897838,-0.0100836558267474,-0.0111262537539005,0.0125333257019519,-0.0097824111580848,-0.0079804733395576,0.004527545068413,0.0003767595626413,0.0047518643550574,-0.0153237525373697,-0.0029502483084797,-0.0039236610755324,-0.017937384545803,-0.0077104987576603,-0.0101928915828466,-0.020070306956768,0.0032285004854202,0.0032776053994894,-0.0131122227758169,-0.0264368038624525,-0.0029120189137756,-0.0219404119998216,-0.0104076908901333,-0.0096428152173757,-0.0140206171199679,-0.0260753221809864,-0.0032578618265688,-0.0143265053629875,-0.020671309903264,-0.0025106626562774,-0.0097736092284321,-0.0217158086597919,-0.0134647786617279,-0.0110998218879103,-0.0077862539328634,-0.0025996789336204,-0.0260003823786973,-0.0107449367642402,0.0003423485904932,-0.0182757750153541,-0.0124920895323157,-0.0136076789349317,-0.0209609121084213,0.0003835307434201,-0.0114193679764866,-0.0103859640657901,-0.0114377439022064,-0.0079700695350766,-0.0077968528494238,-0.0065189483575522,-0.012614831328392,-0.0117183858528733,-0.0160018894821405,-0.0045788479037582,-0.004776073154062,-0.0155070647597312,-0.0124936252832412,-0.0034270021133124,-0.0315984226763248,-0.0050666150636971,0.0047442894428968,-0.0097295027226209,-0.01591950468719,0.0012119272723793,-0.0268770158290863,-0.0089040733873844,-0.0199008211493492,0.0011813845485448,-0.0004949914291501,-0.020182492211461,-0.0069112847559154,-0.0105182146653532,0.0329536646604537,0.0359363481402397,0.0253687296062707,0.044456161558628,0.0473264381289482,0.0113581148907542,0.0383914113044738,0.0490370839834213,0.0081721991300582,0.0401029027998447,0.0201209597289562,0.0121476100757718,0.0405106842517852,0.02480199187994,0.0430861636996269,0.0312724858522415,0.0170217342674732,0.0243555642664432,0.0315707363188266,0.0407909452915191,0.0275613758713006,0.0062112100422382,0.0497730895876884,0.0098390690982341,0.0184015110135078,0.0455392748117446,-0.0004125442355871,0.0283110234886407,0.0393599271774292,0.0386589765548706,0.0322927236557006,0.0309635046869516,0.028711887076497,0.0202301796525716,0.0397410243749618,0.0599837601184845,0.0323229953646659,0.0045185424387454,0.0452901273965835,0.0085610821843147,0.013835902325809,0.0206349864602088,0.0027731712907552,0.0170425698161125,0.0221200920641422,0.0184987150132656,0.0131080877035856,0.0411121100187301,0.0331063196063041,0.0191844571381807,0.024097952991724,0.0098244920372962,0.0159858390688896,0.0181338675320148,0.0259092077612876,0.0249578692018985,0.0066777952015399,0.012590754777193,0.0498574972152709,0.0281142108142375,0.0096319057047367,0.0065597645007073,0.0027485382743179,0.0052164299413561,0.0042165871709585,0.0056843068450689,0.0073609920218586,0.0083866966888308,0.0035088714212179,0.0059877387247979,0.0079551106318831,0.0045016501098871,0.0082264496013522,0.009761244058609,0.0056184967979788,0.0052240481600165,0.0041524316184222,0.0046476242132484,0.0057809366844594,0.0063232933171093,0.0047630127519369,0.0035191266797482,0.0033006095327436,-0.0014807461993768,0.0010216078953817,0.0024936895351856,-0.0002305016678292,0.0015656518517062,0.0020459082443267,-0.0027423114515841,-0.0017439370276406,-0.0012455332325771,-0.0049264514818787,-0.0030026156455278,-0.0060450928285717,-0.0058237905614078,-0.0084061911329627,-0.0039049738552421,-0.0025750647764652,-0.0085751628503203,-0.0054582776501774,-0.0008463555714115,-0.0041504469700157,-0.0032491113524883,-0.003590386826545,-0.0094650415703654,-0.0055137295275926,-0.0084130829200148,-0.0088810324668884,-0.005069887265563,-0.004304380621761,-0.0040949019603431,0.0005478145321831,-0.0005418861983343,-0.0019246415467932,-0.0008871007012203,-2.152204979211092e-05,0.0004968247376382,0.0031008890364319,0.0015930028166621,0.0073063001036643,0.0018604295328259,0.0057742595672607,0.0070283664390444,0.0032207034528255,0.0014228685759007,0.0014974027872085,0.0032020760700106,0.0001279907301068,0.0021793986670672,0.0054143192246556,-0.0039578867144882,0.0066032214090228,0.0091428151354193,0.0053646564483642,0.00542220659554,0.0018861256539821,0.0022212713956832,0.0024741129018366,4.302430897951126e-05,-0.0040459455922245,-0.0030836216174066,-0.0052738962695002,-0.0051978309638798,-0.0080652013421058,-0.0031064674258232,-0.0137652698904275,-0.0081655178219079,-0.0046660909429192,-0.0119976745918393,-0.0144060589373111,-0.0170933343470096,-0.0200496762990951,-0.0206151753664016,-0.0192556679248809,-0.0337409935891628,-0.0339747071266174,-0.0175442621111869,-0.0175461173057556,-0.0216269120573997,-0.0100751426070928,-0.004746769554913,-0.0204376280307769,-0.0097142849117517,-0.0134257189929485,-0.016239508986473,-0.0082949474453926,-0.0192069448530673,-0.0206455588340759,-0.0150757217779755,-0.0203570201992988,-0.0115684885531663,-0.0038941265083849,-0.0038189862389117,-0.0047245263122022,0.0029139295220375,0.0032660723663866,-0.0008158427663147,0.0074041597545146,0.004059157334268,-0.0023674196563661,-0.0041475817561149,-0.0038171031046658,-0.000451675383374,0.0012469766661524,0.0008925816509872,0.0024840687401592,0.0040229191072285,-0.0017682128818705,0.0022736270911991,0.0030311113223433,-0.0031590433791279,0.0029377955943346,0.0049005337059497,-0.0013105412945151,0.0023876396007835,-2.5443732738494876e-05,-0.001486416789703,-0.0002007614821195,-0.0021490450017154,-0.0010823281481862,-9.580166079103948e-06,-0.0029489817097783,-0.0017577576218172,-0.0026461263187229,-0.0022663313429802,-0.0041950298473238,-0.0031331446953117,0.0015941734891384,-0.004989709239453,-0.0022740794811397,-0.0039404053241014,-0.0047207716852426,-0.0035231518559157,-0.0058733592741191,-0.0052358666434884,-0.0075817792676389,-0.0046981857158243,-0.0019611914176493,-0.0099344160407781,-0.0055534052662551,0.000405847094953,-0.0060387654229998,0.0017843428067862,0.0022183570545166,-0.0012672712327912,0.0034359628334641,-0.0028771115466952,-0.0018687468254938,0.0012504425831139,-0.0026348680257797,-0.0021286951377987,0.0003528435481712,-0.0046308422461152,-0.0059277210384607,-0.0033731618896126,-0.0027196942828595,-0.004743168130517,-0.0005635005654767,-0.0015061073936522,4.260000228881836,952342.0,4.261000156402588,4.260000228881836,421.0,1053.0,1,4.261000156402588,1.Sit/1053_B_1.csv,0.0100002288818359,1,7,0
231,0.023285835981369,0.0058619300834834,-0.0163041055202484,0.0164226703345775,-0.0027132555842399,-0.012109856121242,0.0137369036674499,0.0039714779704809,0.0216362420469522,0.0082036927342414,-0.0200275480747222,0.0220614820718765,0.0390030369162559,-0.0050205821171402,-0.0072530256584286,0.0333875603973865,-0.0097748124971985,0.0203526839613914,0.0086732264608144,0.0162124037742614,0.0093019353225827,-0.005532662384212,0.0131834503263235,0.0277965813875198,0.0232551507651805,-0.0283499285578727,-0.0015470841899514,0.0309850648045539,-0.0068469680845737,0.0150862233713269,0.0072223120369017,0.0086399661377072,0.0203655008226633,-0.0045099733397364,0.0052328091114759,0.0209224186837673,0.0225554499775171,-0.035923209041357,0.0257606357336044,0.0146716199815273,-0.0111009301617741,0.0152914663776755,0.0013209851458668,0.012386224232614,-0.000236771069467,-0.0119396885856986,0.0465223155915737,0.0144916148856282,0.0154636884108185,-0.0382174886763095,0.0407784655690193,0.0065447865054011,0.00202895142138,0.0136969350278377,-0.001807820983231,0.0178623497486114,0.0158441681414842,0.015119744464755,0.0030384976416826,0.0182274580001831,-0.0121100898832082,0.0010981671512126,-0.0148722287267446,-3.400444984436035e-05,0.0005464768037199,-0.0110741248354315,-0.0151640586555004,0.0053037321195006,-0.0140603687614202,-0.0114509556442499,-0.0066813114099204,-0.0041335606947541,0.0031408462673425,-0.0089074103161692,-0.0456826537847518,0.0245935190469026,0.0035660238936543,-0.0313096307218074,-0.0339464992284774,0.0045001059770584,0.0029217787086963,-0.0407348871231079,0.0078073730692267,-0.0128762871026992,-0.0120022092014551,-0.0065881684422492,-0.0100223952904343,0.0338098555803298,-0.0200943890959024,-0.0321036577224731,0.0014194389805197,0.0002824640832841,-0.0204567275941371,-0.0112703340128064,0.0109785310924053,-0.0033331166487187,-0.003263984574005,-0.0207395050674676,0.0061840200796723,0.0063704662024974,-0.0156327448785305,-0.020902257412672,-0.0043772449716925,0.0029216576367616,-0.0140891931951045,-0.0144852614030241,0.0054699881002306,-0.0054895863868296,0.0065011046826839,-0.0371917895972728,0.012230597436428,-0.0021844021975994,-0.0263827797025442,-0.0217502452433109,0.0071882409974932,0.0034403689205646,-0.0165631603449583,-0.0171335637569427,-0.0065677654929459,-0.0154499225318431,-0.0216066613793373,-0.0330505110323429,0.0227815918624401,-0.0028777620755136,-0.0440276339650154,-0.006601093802601,0.0097299767658114,-0.005051726475358,-0.0113658495247364,-0.0075753792189061,0.0041605457663536,0.0004041157662868,-0.0231550317257642,-0.0334121212363243,0.0213814675807952,-0.0152252782136201,-0.0318765752017498,-0.0090107871219515,-1.5926547348499298e-05,-0.0317703858017921,-0.0114605808630585,0.0038044638931751,-0.0081418408080935,-0.037218902260065,-0.0245684366673231,-0.0031687477603554,0.0239449962973594,-0.0358266420662403,-0.0181440450251102,-0.0006665112450718,-0.0073283803649246,-0.0125523200258612,-0.0173439495265483,-0.0056189880706369,0.0072902897372841,0.0013626059517264,-0.0452249199151992,0.0082883136346936,0.0048934137448668,-0.0470022521913051,-0.0061161471530795,0.0071969209238886,-0.0207814946770668,-0.0043606618419289,-0.008684248663485,0.0087400348857045,-0.0084169283509254,-0.0288734026253223,-0.021784458309412,0.0154847102239727,-0.0146608147770166,-0.0516721978783607,-5.801394581794739e-05,-0.0058259102515876,-0.006989843212068,-0.01454917807132,-0.0189854390919208,-0.0235627852380275,-0.011546567082405,-0.0194843523204326,-0.0017454428598284,0.0004715351678896,-0.001706879818812,-0.0006461339653469,0.0014914209023118,0.001016070600599,-0.0010202073026448,-0.0012883192393928,-0.0004396659205667,-0.0007301841978915,0.0014243391342461,-0.0006628932897001,0.0001889703562483,0.0022225291468203,-0.0001049095881171,-0.0013574082404375,0.0011454476043581,0.0005379639333114,-0.001397100277245,-0.0011812497396022,-0.0005819951184093,0.0005346113466657,0.0018743814434856,0.0006509276572614,0.0011273839045315,0.0013955158647149,-0.0013626522850245,-0.0012171478010714,0.0007336600683629,-5.9409067034721375e-06,-0.0005730318371206,0.0012535222340375,0.0014863803517073,0.0007975916960276,0.0011396291665732,-0.0012383030261844,0.0007383404881693,-0.0002407649299129,-0.0009068392100743,-0.0009845970198512,0.0012050374643877,0.001361463451758,-0.0007700502756051,0.0020656897686421,0.0022202485706657,0.0005375716718845,0.0017947731539607,-0.0022704703733325,0.0006674226606264,-0.00244110240601,-0.0038827806711196,-0.0001268454652745,0.0006000677822157,-0.0006781183183193,0.0007753160316497,-0.0001353231782559,0.0006779009709134,0.0010887292446568,0.0009252232848666,0.0001325001940131,0.0046084001660346,0.007111694663763,0.0031755005475133,-0.0050036404281854,-0.0008861569222062,-0.0031777697149664,-0.0036756477784365,-0.0031680052634328,-0.0010700460989028,0.0027929677162319,-0.0012066464405506,-0.0061304252594709,-0.0007548597641289,0.0043545751832425,-0.0015076913405209,-0.0025210443418473,0.0002685391809791,0.0015388531610369,0.0048217931762337,0.00837585888803,0.0109880287200212,0.006293355487287,0.0029911063611507,0.0063256919384002,0.0119617283344268,0.0131169538944959,0.0017851794837042,0.0063262460753321,0.007028816267848,0.0032672048546373,0.0049232468008995,0.0026938773225992,0.0036934823729097,0.0033154364209622,0.0001761026214808,0.0031261227559298,0.0093121416866779,0.0088792936876416,-0.0021190063562244,0.0062809158116579,-0.0003041517920792,0.0001921348739415,0.001283120829612,-0.0014145253226161,0.0004791570827364,-0.00670026242733,-0.0058066323399543,-0.0017317121382802,0.0026958149392157,0.0005431431345641,-0.0061919298022985,0.0008502260316163,-0.0061090867966413,-0.0039824666455388,-0.0054316716268658,-0.0018020763527601,-0.0008607276249676,0.0013251369819045,0.0035087831784039,0.0050397710874676,0.0002627468202263,-0.0009966532234102,0.0007918775081634,-0.0023754157591611,0.0011238786391913,-0.0002589388168416,0.0006101684411987,-0.0027735668700188,-0.0025930665433406,-0.0021472796797752,-0.0026211882941424,-0.0011635712580755,-0.0004144379054196,-0.0024509746581315,-0.0028959196060895,-0.0027983656618744,0.0001296284608542,-0.0042276736348867,0.000164721161127,-0.0044098328799009,-0.0044300216250121,-0.0029738505836576,-0.0043817777186632,-0.0027581446338444,-0.0026599166449159,-0.0004162400728091,-0.0024677189067006,-0.0006443716119974,-0.0010193358175456,-0.0035079638473689,-0.0004153738263994,-0.0032190852798521,-0.0001883058575913,-0.0019902065396308,-0.0021680826321244,5.210144445300102e-05,-0.0020461701788008,-9.01998719200492e-05,-0.0015694182366132,0.0009726919233798,-0.0033755700569599,0.0007837598677724,-0.0024784728884696,-0.0024164807982742,-0.0001755717676132,-0.0031085291411727,0.000908873276785,0.0022819470614194,-0.000618752266746,0.0006058157887309,-0.0018831046763807,0.002643076237291,-0.0010756782721728,1.6828300431370735e-05,-0.0016705302987247,-0.0006371902418322,-0.0016722129657864,-0.0022632759064435,-0.0022617629729211,-0.0003109140670858,0.6209999918937683,1108479.0,0.621999979019165,0.6209999918937683,61.0,1078.0,1,0.621999979019165,1.Sit/1078_B_1.csv,0.0119999647140502,1,1,0
206,-0.0159244835376739,-0.0114271510392427,-0.027578791603446,-0.0082076117396354,0.0043795318342745,-0.044359840452671,-0.019826391711831,-0.0190349016338586,-0.0131336757913231,-0.0075416364707052,0.0028648334555327,-3.268197178840637e-05,-0.002816495951265,-0.004662471357733,-0.0189417116343975,-0.0353517197072505,0.0069653079845011,0.0196122787892818,-0.0268471017479896,-0.0156578440219163,0.0094127506017684,0.0077119045890867,-0.0323851257562637,-0.0401649177074432,-0.0190242398530244,-0.0263626985251903,-0.0112618179991841,-0.0202281344681978,-0.0036059708800166,-0.0318533033132553,0.0241187531501054,0.0023851008154451,-0.0530959628522396,0.0017861337400972,-0.0550412684679031,-0.0088446699082851,0.030213201418519,0.0321660824120044,0.0034219375811517,0.0404596477746963,-0.0314538367092609,0.0384565107524395,-0.0210980530828237,-0.0147267300635576,0.0045480285771191,-0.0449198931455612,-0.0003365902230143,-0.0232605226337909,-0.0191357638686895,-0.0039835004135966,-0.0253731254488229,-0.0240101944655179,0.0120164975523948,-0.0263480599969625,-0.0063745980150997,-0.0062271635979413,-0.009087236598134,0.0203872341662645,-0.0259183812886476,-0.0271185878664255,0.023003390058875,0.0215059556066989,0.0396757125854492,0.0097098965197801,0.0399278253316879,0.0360816530883312,0.0705989897251129,0.029032664373517,0.0036728256382048,-0.0059475563466548,0.0093079395592212,0.0035357333254069,-0.0183074939996004,-0.0055718347430229,0.0208500400185585,0.0339286252856254,-0.0275162905454635,-0.0616434440016746,-0.0299780685454607,0.0244315434247255,0.0473199337720871,0.0193920787423849,-0.0147207612171769,-0.0173346400260925,0.0266230143606662,0.0460363328456878,0.0537008568644523,0.015096666291356,-0.0188187044113874,-0.0155419530346989,-0.0027515485417097,-0.0051706079393625,0.0010614669881761,0.0443302504718303,0.0349891930818557,-0.0230475440621376,0.0120515003800392,-0.0192535258829593,-0.0109902881085872,0.0315049439668655,0.0143039040267467,0.0286563001573085,-0.0124246170744299,0.0197499990463256,0.0215542521327734,0.0266193561255931,0.0158374328166246,0.0143655091524124,-0.0332594215869903,-0.0087061943486332,-0.0239057820290327,-0.0104800136759877,0.0141656482592225,0.0391451194882392,0.0458411686122417,-0.0168064888566732,-0.0110454093664884,0.0009050641674548,0.0347300991415977,0.0230298563838005,-0.0216861329972744,-0.0134026920422911,0.0039082560688257,-0.009499741718173,-0.0562885589897632,-0.051076740026474,-0.0611601397395134,-0.0603764504194259,-0.0169653054326772,-0.0377644151449203,-0.0503604188561439,-0.0341799519956111,-0.0251151397824287,-0.0370447859168052,-0.0668407902121543,-0.0601521879434585,-0.0043092481791973,-0.0114396084100008,-0.0035738032311201,-0.0201232507824897,-0.0705990344285965,-0.0692683607339859,-0.0418060570955276,-0.0268074143677949,-0.0560186803340911,-0.0415080562233924,-0.0554223284125328,-0.0473600178956985,-0.0251901820302009,0.0072573106735944,-0.0169755406677722,-0.0439416393637657,0.0289841275662183,-0.0357430800795555,0.0118065904825925,-0.0696472004055976,0.007048750296235,-0.0251772738993167,-0.0303225554525852,-0.0451056435704231,-0.0225685685873031,-0.0280585568398237,-0.002957347780466,-0.030404508113861,-0.0474492758512496,-0.0574080646038055,-0.0389898642897605,-0.0529459081590175,-0.0339528061449527,-0.0186338443309068,-0.0209660716354846,0.0022816210985183,-0.0614145547151565,-0.0430180132389068,-0.0453706979751586,-0.0268118157982826,-0.0220475252717733,-0.039906233549118,-0.0076736137270927,-0.0477526932954788,0.0298919938504695,0.0263152886182069,0.016151338815689,0.0230348352342844,0.0242302902042865,0.0180475898087024,0.0018874346278607,-0.0144035872071981,-0.0203646570444107,-0.0149538274854421,-0.0145928431302309,-0.0128269530832767,-0.0065494515001773,-0.0070970491506159,-0.0044511794112622,-0.0113553367555141,-0.0155275259166955,0.0139715038239955,0.0270390380173921,0.0253645293414592,0.0071378918364644,-0.0062459073960781,-0.0005507874884642,0.0075026866979897,0.0098001221194863,0.0046178894117474,-0.0069477832876145,-0.0088345687836408,-0.0057913018390536,-0.0064570009708404,0.0011302552884444,0.0117344940081238,0.0026245859917253,-0.0029393238946795,-0.0119353774935007,-0.0098490426316857,-0.0052544963546097,0.0004792319668922,0.0095990011468529,0.0066386931575834,0.0039071436040103,0.0033648577518761,0.0080612981691956,0.0114254793152213,0.0061335656791925,0.0022141062654554,-9.23752086237073e-05,-0.0069232401438057,-0.0055252411402761,6.240620859898627e-05,0.0052167391404509,0.0135802114382386,0.0109944837167859,0.0022058703470975,0.0012908275239169,-0.001095792511478,0.0189023297280073,0.0218684151768684,0.0067331888712942,0.0015260584186762,-0.0009583330247551,0.0012569681275635,-0.0079997237771749,-0.0088008567690849,-0.0028478123713284,-0.0079474104568362,-0.0169709976762533,-0.0166177544742822,-0.0186275895684957,-0.0167737547308206,-0.0172232147306203,-0.0155983017757534,-0.0143034430220723,-0.0109787117689847,-0.0055357119999825,-0.0104936705902218,-0.0047767292708158,0.0043305624276399,-0.0053915092721581,-0.0104577774181962,0.0053673218935728,0.0180263388901948,0.0241768155246973,0.0064758835360407,0.007910774089396,0.0097100604325532,0.008840131573379,0.0262384489178657,0.0240708775818347,0.0329579561948776,0.0085798483341932,0.0182228032499551,-0.0118304137140512,-0.0082095367833971,-0.0199667271226644,-0.0322116762399673,-0.019289331510663,-0.0108181033283472,0.0006333484780043,0.0057811671867966,0.0047845598310232,0.0099212434142827,0.0142293674871325,0.0002888001035898,0.0022524471860378,-0.0035744502674788,0.0055519873276352,0.012873918749392,0.0167050100862979,0.0063402708619832,0.0027558852452784,-0.0103597966954112,-0.0064827008172869,-0.0185046754777431,-0.0140055604279041,-0.0081593403592705,-0.007427773438394,0.0053334366530179,0.0045233564451336,0.0019456271547824,-0.0047221630811691,-0.0006993588758632,-0.0019914624281227,-0.0070711732842028,-0.006549238692969,-0.0013400251045823,0.0036379373632371,0.009157782420516,0.0089684063568711,0.0053740399889647,0.0060664997436106,0.0081173907965421,0.0037545035593211,0.004642370622605,0.0030882535502314,0.0050080567598342,0.0045344657264649,-0.0054726540111005,-0.0087897116318345,-0.011388836428523,-0.003701759269461,0.000877370883245,-0.0051359417848289,-0.0122057879343628,-0.0143562443554401,-0.0115701118484139,-0.005395000334829,-0.001859110314399,-0.0032448933925479,-0.009507673792541,-0.015973886474967,-0.0162748415023088,-0.0095268739387393,-0.0081656640395522,-0.006446938496083,-0.0044523915275931,-0.0065984386019408,-0.0131525630131363,-0.017664361745119,-0.0169176235795021,-0.0119455261155962,-0.0018449877388775,-0.0014095087535679,-0.0008999372948892,0.0050516072660684,0.0088515719398856,0.007373000960797,0.0095324944704771,0.0081727653741836,0.0060183289460837,0.0018794606439769,-0.0035541669931262,-0.0032002269290387,-0.0006490648956969,0.0031424246262758,0.0047636278904974,0.0026323832571506,0.0019704753067344,0.0038358070887625,0.0035151441115885,4.257999897003174,544551.0,4.256999969482422,4.257999897003174,421.0,1077.0,1,4.256999969482422,0.Stand/1077_A_1.csv,0.0099997520446777,0,7,1
227,-0.0026784290093928,-0.0017468354199081,0.0100824991241097,0.0049637113697826,0.0111801037564873,-0.0058379699476063,-0.0079889222979545,0.0003407199692446,-0.0019330842187628,0.009519881568849,-0.0036120174918323,-0.0060623600147664,0.0128120016306638,-0.0186116863042116,0.0187212564051151,0.0072679906152188,-0.0041285986080765,-0.0068138339556753,0.0076801790855824,-0.0101802684366703,0.0075716157443821,0.0099422661587595,-0.0016425985377281,-0.0142620932310819,-0.0064568649977445,0.0041756429709494,0.0066454075276851,0.0034711922053247,-0.005241913255304,-0.0003236806951463,0.004749852232635,-0.004149995278567,0.0013069136766716,-0.0008133738301694,0.0059268856421113,0.0010623877169564,-0.006792212370783,-0.006370791234076,0.0143442396074533,-0.0083058727905154,0.0047522103413939,-0.0052026193588972,-0.0048953900113701,0.0080132018774747,0.0026034137699753,0.0035766325891017,-0.0123573616147041,0.0002938573015853,-0.0001018944312818,0.0070478436537086,0.0043532848358154,0.0014997505350038,-0.0036255607847124,-0.0027203168720006,-0.0076925968751311,-0.003313748864457,-0.0006916826241649,0.0060027949512004,-0.008271406404674,0.0211374051868915,0.0216326303780078,-0.0049555609002709,-0.0206651631742715,0.0192371383309364,-0.0069589484483003,0.0152380550280213,0.0166092589497566,0.0256236419081687,0.0124783040955662,-0.0249465424567461,0.0104291085153818,-0.0076717101037502,-0.0130342310294508,-0.0233232639729976,-0.032166089862585,-0.0135818142443895,-0.0141317415982484,-0.0065093515440821,0.0153748374432325,-0.0087719811126589,0.0340208187699317,0.0101464316248893,0.0188673511147499,0.0285186301916837,0.0069464743137359,0.0079564554616808,0.021997932344675,0.0086699873208999,0.0024227800313383,0.0006370926275849,0.0061743780970573,-0.0094660278409719,0.0056653516367077,-0.0093944203108549,-0.0106986258178949,-0.0033234145957976,0.0092212008312344,-0.015862438827753,-0.0150756873190402,0.0001280326396226,0.0184199139475822,-0.0135608538985252,0.0093400413170456,0.012002726085484,0.0155288875102996,0.004229050129652,0.0061205932870507,-0.0020184924360364,0.0102294785901904,-0.0021584013011306,-0.0027756763156503,-0.0033154191914945,0.0090591032058,0.0245483387261629,-0.0154429990798234,0.0032125997822731,0.0003271034220233,-0.0077909203246235,-0.0079889725893735,-0.0006123927887529,-0.0110546872019767,0.0111689269542694,0.0026508313603699,-0.0285094063729047,-0.0388440378010273,-0.0149433147162199,0.0157945100218057,-0.0422096699476242,-0.0387744307518005,-0.0034859189763665,0.0009774006903171,-0.0123640522360801,0.0200034622102975,0.0088807046413421,0.0245279688388109,0.0155565124005079,0.0014758706092834,-0.0062282844446599,-0.0083570200949907,0.0015669595450162,-0.013467339798808,0.0052337222732603,-0.0099820233881473,-0.0072949696332216,-0.0080613307654857,-0.0128890695050358,0.0094091705977916,-0.0006531784310936,-0.00080919964239,-0.0155766420066356,-0.032583225518465,-0.0215924680233001,-0.020925685763359,-0.0046463413164019,0.0047613666392862,-0.0053018685430288,-0.0013311239890754,0.0103268697857856,-0.0018177875317633,-0.0130232945084571,-0.0089932233095169,-0.0287477821111679,-0.0019280472770333,0.0051762354560196,-0.0056721055880188,0.0076010222546756,-0.0021859572734683,0.0044696978293359,0.008298086002469,0.0127106551080942,-0.0002468340098857,0.0198411345481872,0.0044684358872473,-0.0061527267098426,-0.0045901681296527,-0.0031726956367492,-0.001443455228582,-0.0134374573826789,0.006160129327327,0.0077193253673613,-0.0012153305578976,-0.0037707958836108,0.0023070925381034,0.0025513805449008,0.0053506484255194,0.0082731237635016,0.0063181887380778,-0.0008366403053514,2.027023583650589e-05,0.0020824205130338,0.0024956914130598,-0.0007689173216931,-0.0021783532574772,-0.0035567122977226,-0.0043129678815603,-0.0010163211263716,0.0023114634677767,0.00398600846529,0.0046630003489553,0.0062939203344285,0.0035609814804047,0.000428826897405,-0.0033462170977145,-0.0059394128620624,-0.0026954761706292,-0.0004777799476869,-0.0022911340929567,-0.0007414124556817,0.0035747732035815,0.0043949466198682,0.0010430252877995,0.0022082037758082,0.001130199059844,-0.0018900949507951,-0.0005125232855789,5.3119147196412086e-05,-0.0037206846754997,-0.0047370609827339,-5.316047463566065e-06,0.0036145667545497,0.0016300154384225,0.0006280043162405,-0.0003868397325277,-0.0011394422035664,-0.00497567653656,-0.0039760372601449,-0.0030833119526505,-0.0016595548950135,-0.0030019145924597,-0.0039302697405219,-0.0015875126700848,0.0047508268617093,0.0046418998390436,-0.0003042730386368,0.0022181840613484,0.0024284820538014,0.0003016109694726,-0.0012173731811344,-0.001093081664294,7.892670691944659e-05,-0.00339195295237,0.0005633594701066,0.0002367781416978,0.0019139680080115,0.0049666156992316,0.0069679990410804,0.0040753223001956,-0.0015517303254455,-0.0013707841280847,0.0020859830547124,0.0021228149998933,0.0017645296175032,0.0033569021616131,0.005042478442192,0.0071878060698509,0.0123450458049774,0.0091778533533215,0.0049229767173528,0.0049867406487464,0.0053056962788105,0.0034479412715882,0.0070056421682238,0.0037077316083014,0.0016581187956035,-0.0025108396075665,0.0019720555283129,0.0016289639752358,0.0027785934507846,0.003016912844032,0.0017296490259468,0.0052811307832598,0.0025361264124512,0.0033050088677555,0.0011548639740794,0.0012240163050591,0.0029948218725621,0.0015190793201327,0.003205349901691,0.0047141909599304,0.0083773415535688,0.0041956091299653,0.0047922311350703,0.0031818228308111,0.0024006110616028,0.0029606998432427,0.0045320484787225,0.0031010047532618,-0.0001011217827908,-0.0018130410462617,0.0009110105456784,-0.0003685323754325,0.0012743880506604,-0.0031338515691459,-0.0046823350712656,-0.0034441624302417,-0.0076539581641554,-0.0084163164719939,-0.0059167928993701,-0.0063682068139314,-0.0008748184191063,-0.0003519503807183,-0.0009740757523104,0.000813317252323,0.0006498238653875,0.0027519734576344,0.0082544535398483,0.004279542248696,0.0003084442578256,-0.0009243786334991,0.0005496167577803,-0.0007348221261054,-0.0019068589899688,-0.0016484605148434,-0.0012255301699042,0.0009216497419402,0.0025747003965079,0.0020582743454724,0.0022455195430666,0.0017345290398225,0.0015638339100405,0.0003726180584635,0.0031049810349941,0.0011819787323474,-0.000436562433606,-0.0015939865261316,-0.0003686141862999,0.0005218277219682,-0.0002685733197722,0.0020613882225006,0.002401023171842,0.0013167177094146,0.0011735692387446,0.0009927996434271,-0.0005801670486107,-0.0001096362248063,0.0012250684667378,-0.0002064956643152,-0.0002497865643817,0.0003556413576006,0.0019109025597572,0.0006849106866866,-1.8968421500176191e-06,0.000532797188498,-5.823178798891604e-05,0.0003019484574906,0.0005882416735403,0.0002680450270418,-0.0004127772699575,-0.0013232636265456,-0.0004413288261275,0.0008259043097496,0.0016069252742454,0.0010393025586381,-0.0004581554385367,0.0003522777114994,-8.674713899381459e-05,-0.0011474437778815,-0.0006254217587411,-0.0006975117139518,-0.0013442158233374,20.319000244140625,495240.0,20.31800079345703,20.319000244140625,1021.0,1071.0,1,20.31800079345703,0.Stand/1071_A_1.csv,0.0100002288818359,0,17,1
128,-0.0868760645389556,-0.0089783314615488,-0.0002100326819345,0.0240008775144815,-0.0316067598760128,0.0368703007698059,0.0221311096101999,0.0067013390362262,-0.020333083346486,-0.0343690440058708,-0.0027916475664824,0.0167557653039693,-0.0498573146760463,-0.0099925519898533,0.0186186265200376,-0.0150056630373001,-0.0032926106359809,-0.0026175382081419,0.0275904033333063,0.0103184506297111,-0.0309965535998344,0.0072138477116823,-0.018307838588953,0.0028659063391387,0.0415747798979282,-0.0596122629940509,0.0139319347217679,0.035692524164915,-0.0033604190684854,-0.0027057155966758,-0.0014481304679065,0.0196239985525608,-0.0131382811814546,-0.0328733660280704,0.0083115920424461,-0.0064253751188516,-0.019802276045084,0.0303547549992799,0.0165783260017633,0.0005609720246866,-0.0254670977592468,0.0291745699942111,-0.0334852859377861,6.256741471588612e-06,0.0240167826414108,-0.0028198531363159,-0.0130033148452639,-0.0069524534046649,-0.0090500880032777,-0.0112560158595442,0.0089635727927088,0.0014970920747146,-0.0549706295132637,0.0509355217218399,-0.0065386351197957,-0.0508528426289558,0.0557906478643417,-0.0379832908511161,0.0196737553924322,-0.0009706269484013,0.0118623590096831,0.0270745698362588,-0.0158566609025001,-0.0285924728959798,-0.0063572628423571,-0.0754241794347763,-0.1019669100642204,-0.0566784180700778,-0.04673932492733,-0.064892366528511,-0.0675878003239631,-0.0111554209142923,0.0405502580106258,0.0340026021003723,0.0082701984792947,0.0485364235937595,0.0705231055617332,0.0351667888462543,0.0402062609791755,0.0182355567812919,-0.0340497009456157,-0.018048832193017,0.0090972566977143,-0.0638588517904281,-0.0527935735881328,-0.0097461836412549,-0.0445070005953311,-0.06691525131464,-0.040339071303606,0.0161574333906173,-0.030147448182106,0.0231407880783081,0.0647144168615341,0.0303657855838537,-0.0125861521810293,-0.0160787291824817,0.0213879738003015,0.0224559549242258,-0.0462565831840038,0.0143714500591158,-0.0230641327798366,-0.0381372943520545,0.0169430673122406,-0.0136171896010637,-0.005230241920799,0.0076996861025691,0.003418214386329,-0.0027824738062918,-0.0265172254294157,0.0156267341226339,0.0188848488032817,-0.0059234825894236,0.0149436993524432,-0.0077737919054925,-0.0584683306515216,-0.0070124957710504,0.0067050531506538,0.0151199791580438,0.0111040472984313,-0.0023712429683655,-0.0219656862318515,-0.02341790497303,0.0403397120535373,-0.0061722164973616,-0.0019404673948884,0.0521532110869884,-0.0074528036639094,0.0263839289546012,0.021145362406969,-0.0570367276668548,0.0530704706907272,0.0213057622313499,0.0015596942976117,-0.0143038919195532,0.0149068776518106,-0.0041724285110831,-0.0280688107013702,-0.0137445526197552,-0.0170404575765132,-0.0025823414325714,-0.0064562233164906,0.0583850592374801,-0.0522546619176864,0.0482392124831676,0.0246724188327789,-0.0174779668450355,0.0320413783192634,0.0347086377441883,0.0172329358756542,0.007728905417025,0.027584359049797,-0.0559235364198684,0.0032854587770998,0.0157394595444202,-0.0229226201772689,0.0156302005052566,-0.0464832819998264,-0.002051549963653,0.0489321425557136,-0.0009837495163083,0.0322613418102264,0.0226395577192306,0.0512272715568542,0.011544500477612,0.0060681500472128,0.0179115235805511,0.0242307446897029,0.0572380796074867,0.0113805774599313,0.0063514187932014,0.0372761972248554,-0.0644660294055938,0.0322578251361846,0.048189029097557,-0.01546270865947,0.0213325563818216,0.0236407499760389,0.066582590341568,-0.0155428228899836,0.0109012518078088,-0.0478535927832126,-0.0661263167858123,-0.0784604102373123,-0.0974657535552978,-0.1068080365657806,-0.0814489051699638,-0.0565105937421321,-0.0381300300359725,-0.0141005124896764,0.0024281744845211,0.0149559834972023,0.0250400006771087,0.0269655510783195,0.0250986348837614,0.0267944801598787,0.0199604500085115,0.0126927318051457,0.0061029973439872,-0.0051255822181701,-0.0093800965696573,-0.007958143018186,-0.0034282798878848,-0.0172981079667806,-0.0116948913782835,-0.0063088089227676,-0.009805928915739,-0.0117047447711229,0.00568413361907,0.0079921009019017,0.0026266085915267,0.0010475815506651,-0.0020084958523511,-0.0187534540891647,-0.030954111367464,-0.031772319227457,-0.0191000998020172,-0.0240567494183778,-0.0203911550343036,-0.0173075385391712,-0.0154638551175594,-0.0031084395013749,0.0015997545560821,0.0071793822571635,0.0048534381203353,0.0005734174046665,-0.0032897074706852,-0.0149556724354624,-0.0209885742515325,-0.0179736856371164,-0.0180207323282957,-0.0123714571818709,-0.0220380164682865,-0.0112365502864122,0.0003244375111535,-3.064703196287155e-05,0.0150280082598328,0.0083427298814058,0.0085072536021471,0.0044733728282153,0.0100176809355616,-0.0114817740395665,-0.0173327643424272,-0.0272861365228891,-0.0300212725996971,-0.0293858721852302,-0.0214440487325191,-0.0063012358732521,-0.0056607387959957,0.0057474626228213,0.0027488160412758,-0.0037410820368677,0.0035452211741358,-0.0018547684885561,-0.0011046108556911,-6.944849155843258e-05,0.0102213798090815,0.0106431525200605,0.0133666535839438,0.014447490684688,0.0175989549607038,0.0196030680090188,0.0138169145211577,0.0149700017645955,0.0052349455654621,0.0140620628371834,0.0148179130628705,0.0090503366664052,0.0121987089514732,0.0102290604263544,0.0080489348620176,0.0037003878969699,0.0056576579809188,0.0146067170426249,0.0074226707220077,0.0007823170162737,0.0007698859553784,-0.004268541932106,0.0018228937406092,-0.0046826489269733,0.0012938037980347,0.0027442381251603,0.0046351868659257,0.0015173081774264,-0.0051164040341973,-0.008029730990529,-0.0027706772089004,0.0031104951631277,-0.0031661558896303,-0.0037645138800144,-0.0006849023047834,-0.0058974297717213,0.0052032535895705,-0.0245788935571908,-0.0272976513952016,-0.0024090360384434,-0.0149124357849359,0.0023763279896229,0.0001330701634287,-0.0003237263299524,0.0002708304673433,-0.0148948952555656,-0.0163260996341705,-0.0194835402071476,-0.0214595887809991,-0.0258094388991594,-0.0145982913672924,-0.0156041281297802,-0.0178317744284868,-0.0073463460430502,-0.0019520138157531,0.0058978302404284,0.0040744696743786,0.005675530526787,0.0083127664402127,0.0089041218161582,0.0081175109371542,0.0099626900628209,0.0060505717992782,-0.0027670878916978,-0.0073988665826618,-0.0044875522144138,0.0013244142755866,-0.0085108736529946,-0.0036735255271196,-0.007387367542833,-0.0109458994120359,-0.0059422086924314,-0.0027199434116482,0.000939627061598,-0.000643539999146,-0.0039908955805003,0.0003818898694589,-0.0020996339153498,-0.0045264628715813,-0.0078695230185985,-0.0040190503932535,-0.0009628640837036,0.0039090169593691,-0.000305701745674,-0.0041845832020044,0.0023788847029209,0.0064315870404243,0.0098941577598452,0.0008704891661182,-0.003051359206438,0.0016851705731824,0.0039180726744234,0.0061780172400176,0.0072851362638175,0.0032442847732454,0.0035269346553832,-0.0016682426212355,0.0002091886708512,-0.0097414348274469,-0.0187500808387994,0.00043733936036,0.0084964986890554,0.0138870486989617,0.0086565101519227,-0.0055270474404096,0.625,218578.0,0.6159999966621399,0.625,61.0,1028.0,1,0.6159999966621399,0.Stand/1028_A_1.csv,0.0109999775886535,0,1,1
210,-0.0361263938248157,-0.0486654601991176,-0.0267786085605621,0.0010883933864533,-0.0355080403387546,0.0124141350388526,-0.0115471957251429,-0.0233329180628061,-0.0125512722879648,-0.0026227971538901,-0.0201759543269872,0.0276186540722847,-0.0393296852707862,-0.0163163635879755,0.0125143062323331,-0.0205152928829193,-0.0016561029478907,-0.0145908873528242,0.0053010112605988,-0.0169297792017459,0.0192080736160278,-0.007839810103178,-0.0611209347844123,-0.013176079839468,-0.0079948073253035,0.0074171829037368,-0.0115855345502495,-0.0207372177392244,0.0008833245374262,0.001466164831072,-0.0191849153488874,-0.0096662947908043,-0.0002159257419407,0.0005255094729363,-0.002175701316446,-0.0319780260324478,-0.0082823485136032,-0.0141008468344807,-0.025176903232932,-0.0071511659771203,-0.018950417637825,-0.0386889725923538,-0.0196337010711431,-0.0163290165364742,-0.0005536978133022,-0.0258365795016288,-0.0166834313422441,-0.0050423224456608,-0.0138897346332669,-0.0042511112987995,-0.0246599949896335,-0.0103564532473683,-0.0226631592959165,-0.0062676779925823,-0.0090219043195247,-0.0114976707845926,-0.001019915100187,-0.0261827353388071,0.0039080330170691,-0.0236709583550691,-0.0516901612281799,-0.037671074271202,-0.0180456973612308,0.0219043977558612,0.0035566845908761,0.0438029244542121,0.0416797511279583,0.0275574699044227,-0.0217837449163198,-0.0215867310762405,0.0388191379606723,0.028492659330368,-0.0283703990280628,-0.0280386097729206,-0.0468675047159194,0.0224542245268821,-0.0580425597727298,-0.0278914012014865,-0.0047480100765824,-0.0347337909042835,0.0217965394258499,-0.0657157748937606,-0.0220797471702098,-0.0329944938421249,-0.0452617518603801,-0.0275985561311244,-0.0400153920054435,0.0064064478501677,-0.0410344786942005,-0.0463768281042575,-0.0310026369988918,-0.0190046913921833,-0.0044108661822974,-0.0223389603197574,0.0317666083574295,0.0047742957249283,-0.0847678929567337,-0.0176367051899433,-0.0164987798780202,-0.0301818810403347,-0.0252004042267799,0.0052925264462828,-0.0549064986407756,-0.0577509701251983,-0.0120725873857736,-0.0057445028796792,-0.0239386111497879,-0.0016858056187629,-0.0119519447907805,-0.0029859794303774,-0.0091840736567974,-0.0161912590265274,0.0004766043275594,-0.0298593081533908,-0.0105372816324234,-0.0100170038640499,-0.0501100346446037,-7.95247033238411e-05,-0.0162841789424419,-0.0603114515542984,0.0610421448945999,0.0621728152036666,0.0462958812713623,0.0333386734127998,0.0555186793208122,0.0575655102729797,0.0356118455529212,0.0701507255434989,0.038971334695816,0.0085294125601649,0.0159108638763427,0.0018685162067413,0.0464972034096717,0.0466106571257114,0.020523939281702,0.0453174412250518,0.0192608777433633,-0.0086175892502069,0.0205557662993669,-0.0005970709025859,0.0101595530286431,-0.0351236462593078,0.005084496922791,0.0131976120173931,0.0036135846748948,0.0368744283914566,0.0188295282423496,0.0280689969658851,0.0451233610510826,0.0362658873200416,0.0407016389071941,0.0083936210721731,0.0224145762622356,0.0625310838222503,-0.0309354495257139,0.0390578135848045,0.0717160031199455,0.034024927765131,0.0562659576535224,0.0328680761158466,0.0452209338545799,0.0424737595021724,0.0527750104665756,0.0563161969184875,0.0670447200536727,0.0448852628469467,0.0718057379126548,0.0482470095157623,0.0551627427339553,0.0363864973187446,0.0681578069925308,0.0327427014708519,0.0062033832073211,0.033800546079874,0.0193118788301944,0.0248167179524898,0.0316038355231285,0.0589288398623466,0.0613495409488678,-0.0060383025556802,0.0215049013495445,0.0339640714228153,0.0404868014156818,0.041770115494728,0.0586831532418727,0.0549622438848018,0.0523982644081115,0.0503592118620872,0.0566177330911159,0.0533194802701473,0.0446946509182453,0.0357568152248859,0.0191388353705406,0.0127749983221292,0.0036914660595357,-0.0074048917740583,-0.0059396075084805,-0.0108924331143498,-0.0074529992416501,-0.0090400902554392,-0.0153200859203934,-0.0102260336279869,-0.0118703683838248,-0.0149288931861519,-0.0144322635605931,-0.0094598783180117,-0.0042389342561364,-0.0068663256242871,-0.0033325275871902,0.0012452790979295,0.0018267395207658,0.0077807437628507,0.0080602597445249,0.0045503489673137,0.0061157280579209,-0.0012388592585921,0.0035515285562723,0.0081477388739585,-0.0010092711308971,0.0013804524205625,0.0057539101690053,0.0078757470473647,0.0064017823897302,0.0048408261500298,0.0056157479993999,0.0090657826513051,0.01115442533046,0.0076539549045264,0.0058510266244411,0.004153701942414,0.0007926829857751,-0.0084708612412214,-0.0060275672003626,-0.0100862402468919,-0.0060004605911672,-0.004219776019454,-0.0050699249841272,-0.0040800813585519,-0.0095598846673965,-0.0025343876332044,0.0032552152406424,0.0019865094218403,-0.0048856735229492,-0.0080486079677939,-0.0076023209840059,-0.0097304871305823,-0.0141869718208909,-0.0187630653381347,-0.0201545692980289,-0.0268613304942846,-0.0291469693183898,-0.0227083880454301,-0.0219503790140151,-0.0314275324344635,-0.0221521444618701,-0.0243641715496778,-0.0194510836154222,-0.020323097705841,-0.0213098656386137,-0.0127006005495786,-0.016689009964466,-0.0185579881072044,-0.0220507737249135,-0.02159309014678,-0.0168230049312114,-0.0072142230346798,-0.0008972226642072,0.000941207865253,0.0011378659401088,0.0048068352043628,0.0058794906362891,0.0086212866008281,0.0160322077572345,0.0222882237285375,0.0241154860705137,0.0216932445764541,0.0249742437154054,0.0198604948818683,0.0150690944865345,0.0106231747195124,0.0055993031710386,-0.0068399747833609,-0.0039293481968343,-0.0063303522765636,-0.005174858495593,-0.0020567770116031,0.0004366389475762,-0.0008223229087889,-0.005606566555798,-0.0104592004790902,-0.0217198822647333,-0.0267461109906435,-0.0246603805571794,-0.0329948514699935,-0.0286241751164197,-0.0244506243616342,-0.0241665318608284,-0.0257620140910148,-0.019792316481471,-0.008268860168755,0.0030278428457677,0.0057213441468775,0.0100490069016814,0.0088857747614383,0.0151957990601658,0.0186574887484312,0.0193992145359516,0.0195833295583724,0.0186487212777137,0.0178087335079908,0.016023064032197,0.008044995367527,0.0093121426180005,0.0026077879592776,0.0020622452720999,-0.0046571940183639,-5.508400499820709e-05,-0.0112922182306647,-0.0139264920726418,-0.0128984721377491,-0.0206472110003232,-0.0126082450151443,-0.0104319574311375,-0.0106730721890926,-0.0128352362662553,-0.0127205532044172,-0.0082425130531191,-0.0076377592049539,-0.0016623701667413,-0.0027649102266877,-0.0023038228973746,-0.0036363876424729,-0.004838730674237,-0.0015611965209245,-0.0004290214274078,0.0026612258516252,2.6277266442775726e-05,8.503079880028963e-05,-0.0034167831763625,-0.0035740784369409,-0.0019480475457385,0.0008314029546454,0.0019446540391072,0.0009872337104752,-0.0003790509654209,-0.0049194912426173,0.000387713429518,-0.0010218427050858,-0.0022042002528905,-0.0029010802973061,-0.0044388105161488,-0.0080724358558654,-0.0098003167659044,-0.0120560582727193,-0.0100942831486463,-0.0091956043615937,-0.0087664537131786,-0.0089677842333912,-0.0119603583589196,-0.005606175865978,1.2280000448226929,366116.0,1.2289999723434448,1.2280000448226929,121.0,1049.0,1,1.2289999723434448,0.Stand/1049_A_1.csv,0.0089999437332153,0,2,1
8,0.027378536760807,0.0338385254144668,0.0260510593652725,0.0266697145998477,0.027235809713602,0.0217716824263334,0.029279189184308,0.0211810637265443,0.0300008058547973,0.0125822369009256,0.0297222677618265,0.0314045585691928,0.0182583145797252,0.0190097242593765,0.035757727921009,0.032573863863945,0.0424797013401985,0.0193146504461765,0.0378895699977874,0.0269071757793426,0.0180470347404479,0.0489311441779136,0.0085069127380847,0.0231004990637302,0.0576867833733558,0.0212471187114715,0.0518390946090221,0.0381076522171497,0.0168336518108844,0.0106174889951944,0.0278944689780473,0.0199589952826499,0.0214823000133037,0.0092542320489883,0.0389657653868198,-0.0188976638019084,0.0432059466838836,0.015779385343194,0.0338300578296184,0.0423388518393039,0.0111790914088487,0.0450668558478355,0.0235085375607013,0.0117596331983804,0.0401795208454132,-0.0031359381973743,0.0747499018907547,-0.0080086290836334,0.0480396896600723,0.0330589152872562,0.0097691006958484,0.0337999910116195,0.0238017886877059,0.0318137817084789,0.0282104108482599,0.0277948044240474,0.0311035513877868,0.0237440019845962,0.0126288393512368,0.0390110313892364,0.0084067555144429,0.0005789522547274,0.0239840559661388,0.0213127341121435,0.0098307849839329,-0.0026942945551127,-0.0111101819202303,0.0330752469599247,0.0287387147545814,-0.008654267527163,-0.0253256764262914,0.007942821830511,0.0016838812734931,0.0154475485906004,0.0220500975847244,0.0034084876533597,0.0132722342386841,0.0120998611673712,-0.0231247283518314,-0.0041040387004613,-0.0206040665507316,0.0433099307119846,0.0126656396314501,-0.0534156896173954,0.0101146744564175,0.024447713047266,0.0330200567841529,-0.0092029348015785,0.0186246577650308,0.0272477641701698,0.0287498570978641,-0.0077219204977154,-0.0081145437434315,-0.0017070870380848,0.0151108922436833,-0.0112427305430173,0.0404018349945545,-0.0068352092057466,0.0189740527421236,0.0327912867069244,0.0262397658079862,0.0048961322754621,0.0533397980034351,0.0050044981762766,0.0236378572881221,-0.0032278764992952,0.0334731452167034,0.0191725846379995,-0.0137975690886378,0.0174929536879062,-0.0086847385391592,0.0069101965054869,0.0326295010745525,0.0001169263850897,-0.0009175336454063,-0.014311034232378,0.0206100195646286,-0.0032286171335726,-0.0205850321799516,-0.0001271541696041,0.1012705415487289,0.1101867407560348,0.0756138712167739,0.0677864700555801,0.0776519998908042,0.1052788645029068,0.0553388483822345,0.0950565785169601,0.0789236426353454,0.0520447716116905,0.0851912498474121,0.0674486234784126,0.0633336082100868,0.042098369449377,0.0463980846107006,0.0484016761183738,0.0629239976406097,0.0411816462874412,0.0893646776676178,0.0513840317726135,0.0647072792053222,0.0515344738960266,0.0506475679576396,0.0914010107517242,0.0683434829115867,0.0443995483219623,0.0389608778059482,0.0657999366521835,0.0406619533896446,0.0359361693263053,0.0481526032090187,0.0858655273914337,0.0575510002672672,0.0796006172895431,0.072795420885086,0.0721437484025955,0.0511251501739025,0.0774582996964454,0.0469356514513492,0.050026997923851,0.058826494961977,0.0423292517662048,0.0397860780358314,0.0536648333072662,0.0527598559856414,0.0415596365928649,0.0838335156440734,0.0706486850976944,0.0573760271072387,0.0410961657762527,0.0525938272476196,0.0621861740946769,0.0360708646476268,0.0604154653847217,0.0528876334428787,0.071738451719284,0.0521809421479702,0.054406926035881,0.0692980885505676,0.0812917798757553,0.004082896746695,0.0054196696728467,0.0023466357961297,0.003082719631493,-0.0028939133044332,-0.0062752366065979,0.0001080797519534,0.0044740219600498,-0.0002656655851751,-0.0018879148410633,-0.0100989891216158,0.0005828198045492,0.006053052842617,0.0035775280557572,0.0023890435695648,-0.0004853677237406,-0.0001196168595924,-0.00481160543859,-0.0077260984107851,-0.0047533195465803,0.0031650969758629,0.0091850766912102,0.0066725341603159,-0.0088986065238714,0.0057253274135291,0.0120276249945163,0.0059539005160331,0.0048216916620731,0.0030498998239636,0.0038397382013499,7.627799641340971e-05,-0.0063908989541232,-0.0006162048084661,-0.0005900327814742,0.0029082051478326,0.0028735911473631,0.001741487532854,0.001713641686365,0.0035966532304883,0.0046265092678368,0.0044469726271927,0.0078148059546947,0.0053031700663268,0.0021251067519187,-0.0028921486809849,0.0003271603491157,0.0017974858637899,0.0038938336074352,0.0013838608283549,-2.669112291187048e-05,0.0026205754838883,0.003851921763271,0.008837423287332,0.0021646998357027,0.0056088147684931,0.0049930643290281,0.0058742398396134,-0.0008952408097684,-0.0026230262592434,0.0032611405476927,-0.0020970569457858,0.0036465316079556,0.0040353401564061,-0.0020066036377102,0.0036112982779741,0.0027772905305027,-0.000261657172814,0.0018292446620762,-0.0084054274484515,-0.0016849817475304,0.0009632892906665,0.0024007251486182,-5.218200385570526e-05,-0.006071840878576,-0.0114817759022116,-0.0125375716015696,-0.0151964807882905,-0.0164459720253944,-0.0205305181443691,-0.024074126034975,-0.0212800055742263,-0.0267715565860271,-0.0222295429557561,-0.0175229404121637,-0.0245580207556486,-0.0234041456133127,-0.0263919737190008,-0.0263490341603755,-0.0229615997523069,-0.0255291201174259,-0.0236749425530433,-0.0222579892724752,-0.0279862005263566,-0.0210880395025014,-0.0234841089695692,-0.0134833622723817,-0.0119151622056961,-0.0076146153733134,-0.0080986134707927,-0.0073466356843709,-0.0043345121666789,-0.0058675771579146,-0.0022989050485193,-0.0008192998357117,-0.0042992928065359,-0.0015933440299704,-0.007886323146522,-0.0039385091513395,-0.0028714668005704,0.0010675776284188,0.0084198080003261,0.0038037453778088,-0.0019924691878259,-0.0025443010963499,0.003410467877984,0.0021867556497454,0.0050731431692838,0.0032577337697148,0.0045340973883867,-0.0034087486565113,-0.0052690468728542,-0.0019092155853286,-0.0002512038045097,-0.0037398799322545,-0.0021286010742187,-0.0036283279769122,-0.0006355382502079,-0.0007948874263092,-0.0057644802145659,-0.0017156203975901,-0.0020869807340204,-0.0002437879593344,-0.0016869488172233,-0.0028216196224093,0.0007675294764339,-0.0026026177220046,-0.0015496864216402,0.0001289163774345,-0.0018373291241005,-0.0015938869910314,-0.0012225074460729,-0.0019871413242071,-0.0033259391784667,0.0019277271348983,0.002949729328975,0.004101569764316,-0.0018458100967109,-0.004239659756422,-0.0009457637788727,-0.003008680185303,-3.7565871025435627e-05,-0.0022054519504308,-0.0029192389920353,0.0003388820623513,-0.0007129927398636,-0.000899544218555,-0.0030687353573739,0.0016153353499248,0.0004301024309825,-0.0009085600031539,0.0004994360497221,-0.0018014620291069,0.0010011118138208,0.0024944369215518,0.0020919106900691,0.0055612102150917,0.0027583371847867,0.0032655033282935,0.0028542352374643,0.0042244503274559,0.0047807488590478,0.0050694206729531,0.0057666446082293,0.0058503858745098,0.003210209775716,0.0053550428710877,0.005089508369565,0.0071586966514587,0.0047522541135549,0.0029234667308628,12.01099967956543,21543.0,12.027999877929688,12.01099967956543,1201.0,1003.0,1,12.027999877929688,0.Stand/1003_A_1.csv,0.0100002288818359,0,20,1
72,0.053757969290018,0.0071754781529307,0.0165570024400949,0.0218110848218202,-0.0212042815983295,0.0671975314617157,0.0072399992495775,-3.99518758058548e-05,0.053006250411272,0.0479742214083671,0.000131394714117,0.0070803929120302,0.0187112912535667,-0.0004243608564138,0.0401967726647853,0.0580137744545936,0.006901916116476,-0.0037507824599742,0.0448522865772247,0.0198453832417726,0.0018170811235904,0.0088840592652559,0.0217629037797451,0.0258927345275878,0.0324935615062713,0.0182578470557928,0.0111914239823818,0.0248502809554338,0.0215823575854301,0.0620698034763336,-0.0172757469117641,0.0385682135820388,0.0273608528077602,0.0129495654255151,0.0695515424013137,-0.001527989283204,-0.0159405097365379,0.0661709010601043,0.042039930820465,-0.0005610976368188,0.0217162948101758,0.0500206761062145,0.0001797191798686,0.0692260637879371,0.022716162726283,0.0230456981807947,0.0219211764633655,-0.0057162418961524,0.0490428917109966,0.0095973201096057,0.0264068096876144,0.0427405461668968,0.0287003498524427,0.0173376314342021,0.0149471508339047,0.02695994079113,0.0141392312943935,0.0209639687091112,0.0510473176836967,-0.0139921121299266,-0.0031311006750911,0.0113929249346256,-0.0130050415173172,-0.0387968532741069,-0.0093981903046369,-0.0011969513725489,0.0049482472240924,-0.0111207962036132,-0.0038320070598274,0.0059333834797143,-0.0031051377300173,0.0023329993709921,-0.010470712557435,0.0152989979833364,0.0225414484739303,-0.0064863683655858,0.0127137918025255,-0.0034906377550214,0.0031857178546488,0.0023156777024269,0.0111383618786931,0.0059622223488986,0.0004943590029142,-0.0099681606516242,-0.0058548990637063,-0.0058594942092895,-0.0029516161885112,-0.030683247372508,-0.0086975842714309,-0.0247929506003856,-0.0123785845935344,0.0210021026432514,-0.0236088950186967,0.0024029144551604,0.0169726181775331,0.0040505984798073,0.0050655961968004,0.0007722484297119,0.019646231085062,0.0027235026936978,-0.0169304925948381,-0.0016901972703635,-0.0001436807215213,-0.0075101042166352,-0.0404716804623603,0.0055041895247995,-0.0059050405398011,-0.0110028171911835,0.0122820036485791,-0.0007442920468747,0.0056395502761006,-0.0017450873274356,-0.0039178794249892,-0.0067458073608577,-0.000271190307103,-0.0156286712735891,-0.0240258760750293,-0.0057964683510363,-0.0005740429623983,-0.0166122503578662,0.0644686967134475,0.0088869202882051,0.0326563641428947,0.0362529717385768,0.03157539665699,0.0560280755162239,0.0461209118366241,0.0273248795419931,0.0284872110933065,0.0153814014047384,0.0501180365681648,0.0292969122529029,0.0073930523358285,0.0158188976347446,0.0241643041372299,-0.0052444478496909,-0.0113363107666373,-0.0142760751768946,0.018941730260849,0.0226139184087514,0.0094329109415411,0.0357853844761848,0.0194859057664871,-0.0045403381809592,0.0126421833410859,0.012453120201826,-0.0001421375200152,0.0128365056589245,-0.0392510518431663,0.0339596718549728,-0.0603051595389843,-0.0098009435459971,-0.0043946569785475,-0.0679744258522987,-0.0282992422580719,-0.0333449281752109,6.928015500307083e-05,-0.0066866790875792,-0.0386806279420852,0.0052659418433904,-0.0277433842420578,-0.0281235128641128,-0.0483528114855289,-0.0028506545349955,-0.0510345734655857,-0.0488874875009059,-0.0212065130472183,-0.0126796467229723,-0.0366921238601207,-0.0282738432288169,-0.0336905159056186,-0.0149839138612151,-0.0544383563101291,0.0048686666414141,-0.0266555435955524,-0.0121845630928874,-0.0138243762776255,-0.0413543209433555,0.0533531866967678,-0.0243658572435379,-0.0068479101173579,-0.0125377047806978,-0.0089867813512682,-0.0079150032252073,-0.0064544007182121,-0.0023819247726351,-0.0030201533809304,-0.0001618440437596,-0.0015149775426834,-0.0038538398221135,0.0020981971174478,0.000993222463876,0.0026627331972122,0.0027271308936178,0.0098729822784662,-0.0008861672249622,0.0009958198061212,0.0010835790308192,-0.0036087674088776,0.0007093563908711,-0.0025822531897574,0.0004288075433578,-0.0009366842568852,-0.0017124589066952,-0.0007996255299076,-0.0021092649549245,0.001784328254871,0.0102658327668905,0.0041643418371677,0.0172032732516527,0.0145228141918778,0.014561703428626,0.0219531673938035,0.0099369008094072,0.011101871728897,0.0106894830241799,0.0072642364539206,0.01177513692528,0.0041077979840338,0.0035546065773814,0.0017954126233235,0.002821733476594,-0.0017302874475717,0.0031596457120031,0.0018070432124659,0.0011857332428917,0.005127603188157,0.0029847619589418,0.002096323762089,-0.0029325950890779,-0.0078524248674511,-0.0122954053804278,-0.01516680046916,-0.0153236696496605,-0.0134300477802753,-0.0133082158863544,-0.0096662817522883,-0.0126856639981269,0.0007303559104911,-0.0022686345037072,0.0051573244854807,0.0031322904396802,-0.0080735413357615,0.0002045549917966,-0.0120816398411989,-0.006731784902513,-0.0063016908243298,-0.0115623427554965,-0.0025263261049985,0.0036728561390191,0.0101604741066694,-0.0014124558074399,0.000568495132029,-0.0007212974596768,-0.0065674185752868,0.0110722593963146,0.0070333704352378,-0.0014202131424099,-0.0007393135456368,0.0082304272800683,0.0009079256560653,-0.0084380758926272,-0.009276513941586,-0.0061659878119826,-0.0035514533519744,-0.0059965793043375,-0.013867481611669,-0.0034465629141777,-0.0218421462923288,0.0001323278993368,-0.0003266852581873,-0.0191136002540588,-0.0087277954444289,-0.0026855606120079,-0.0008718757890164,-0.004018887411803,-0.0132103618234395,-0.0155438026413321,-0.0038080245722085,-0.0119472621008753,-0.0131712509319186,-0.0056403027847409,-0.0072330767288804,-0.0098317610099911,0.0079700667411088,0.0029523579869419,-0.0017540216213092,0.007319439202547,-0.0073992256075143,0.0079499278217554,0.0095859840512275,0.0069024609401822,0.0171532463282346,0.0179401189088821,0.0133248036727309,0.007965468801558,0.0144615806639194,0.0079083247110247,0.0147957131266593,0.0143486894667148,-0.0022107267286628,-0.0009113760897889,0.0020191520452499,-0.0034937465097755,0.0033624242059886,0.0016875158762559,-0.0031520770862698,0.0019553448073565,0.0004943021340295,-0.002433163113892,-0.0005832804599776,-0.0017230674857273,-0.0005523012951016,0.0014704366913065,-0.0006617926992475,-0.0017414732137694,-0.0008036820217967,0.0015734626213088,-0.0007585618877783,-0.002323001390323,-0.0028097280301153,0.0019918393809348,0.0003006571787409,-0.0003020157746504,0.0002783993259072,-0.0033072531223297,-0.0005691456608474,0.0015229530399665,-0.0004082958621438,-2.864163252525032e-05,0.0006374813383445,0.003048085141927,0.0041444771923124,0.0025430126115679,-0.002144813304767,-0.0014742517378181,0.002384299878031,-2.8785114409402013e-05,-4.868779797106981e-06,-0.0039736772887408,-0.0027953833341598,-0.0011739186011254,-0.0016458679456263,-0.0011646999046206,-0.0019134510075673,-0.0003223335952498,0.002516500884667,0.0020778411999344,0.0003281410608906,0.0022148927673697,0.0016696153907105,-0.0005500417901203,-0.0029427958652377,-0.0011683384655043,-0.0011483734706416,-2.618318831082433e-05,0.0008746529929339,0.0021688407287001,-0.0003769145696423,-5.704009527107701e-05,9.821000099182127,40111.0,9.8100004196167,9.821000099182127,781.0,1006.0,1,9.8100004196167,0.Stand/1006_A_1.csv,0.0090007781982421,0,13,1
